PE UV       SUBTECH     SPECTRUM    ASCII       PEDS        4.00        
   -1
sf10 no sharpie.Sample.asc
18/07/06
13:21:37.00
18/07/06
13:21:37.00
Analyst
blank
350.000000
1
Lambda 950
950L1201053
PerkinElmer UV WinLab 6.0.4.0738 / 1.61.00 Lambda 900

0
0
3350/16 889.8/4
0
0
VIS
1
1
1
CommonBeamDepol,RBeamAtt,SBeamAtt,universal reflectance
0
0
0
0
Program
 
0
3350/0.28 889.8/0.28
0
0
0
 
 
 
0
 
889.8
150
889.8
Front
31
on
3350/S:100 3350/R:100
 
0
0
0
 
0
 
 
 
0
 
 
0
0
8.0
4.00
4.00
False
False
202L1112213
 
0
0


0
0
#HDR
-1
-1
#GR
nm
%R
1.0
0.0
880.000000
-1.000000
531
8
8.271491
7.005473
#DATA
880.000000	7.007973
879.000000	7.008585
878.000000	7.013096
877.000000	7.011763
876.000000	7.014547
875.000000	7.009034
874.000000	7.010721
873.000000	7.010449
872.000000	7.005473
871.000000	7.009154
870.000000	7.012567
869.000000	7.012283
868.000000	7.009887
867.000000	7.017891
866.000000	7.005996
865.000000	7.012504
864.000000	7.015751
863.000000	7.016083
862.000000	7.010332
861.000000	7.011452
860.000000	7.011007
859.000000	7.018155
858.000000	7.010926
857.000000	7.008131
856.000000	7.012287
855.000000	7.010044
854.000000	7.016332
853.000000	7.012858
852.000000	7.013316
851.000000	7.011051
850.000000	7.006920
849.000000	7.012487
848.000000	7.018936
847.000000	7.014475
846.000000	7.015763
845.000000	7.016636
844.000000	7.014495
843.000000	7.017841
842.000000	7.011902
841.000000	7.008062
840.000000	7.020651
839.000000	7.014369
838.000000	7.028089
837.000000	7.016230
836.000000	7.025800
835.000000	7.019628
834.000000	7.016721
833.000000	7.021670
832.000000	7.019389
831.000000	7.012995
830.000000	7.017370
829.000000	7.021468
828.000000	7.021451
827.000000	7.016793
826.000000	7.020506
825.000000	7.027792
824.000000	7.019640
823.000000	7.022847
822.000000	7.022117
821.000000	7.035897
820.000000	7.024489
819.000000	7.023886
818.000000	7.023849
817.000000	7.025318
816.000000	7.023550
815.000000	7.035044
814.000000	7.030312
813.000000	7.029725
812.000000	7.036209
811.000000	7.036647
810.000000	7.031000
809.000000	7.030157
808.000000	7.031406
807.000000	7.027760
806.000000	7.034446
805.000000	7.032979
804.000000	7.040142
803.000000	7.036586
802.000000	7.040042
801.000000	7.034258
800.000000	7.035030
799.000000	7.033549
798.000000	7.037448
797.000000	7.046079
796.000000	7.038552
795.000000	7.039645
794.000000	7.040141
793.000000	7.048963
792.000000	7.041475
791.000000	7.054201
790.000000	7.045693
789.000000	7.043781
788.000000	7.053619
787.000000	7.050824
786.000000	7.047957
785.000000	7.047167
784.000000	7.050768
783.000000	7.047009
782.000000	7.050439
781.000000	7.051974
780.000000	7.054961
779.000000	7.050532
778.000000	7.055480
777.000000	7.055206
776.000000	7.050134
775.000000	7.055221
774.000000	7.056308
773.000000	7.058385
772.000000	7.057918
771.000000	7.059638
770.000000	7.058534
769.000000	7.057823
768.000000	7.059968
767.000000	7.059970
766.000000	7.064629
765.000000	7.064402
764.000000	7.060673
763.000000	7.063530
762.000000	7.066906
761.000000	7.069238
760.000000	7.066849
759.000000	7.074006
758.000000	7.069594
757.000000	7.069844
756.000000	7.068339
755.000000	7.074506
754.000000	7.069857
753.000000	7.072864
752.000000	7.075644
751.000000	7.081382
750.000000	7.076706
749.000000	7.075650
748.000000	7.071932
747.000000	7.083719
746.000000	7.081460
745.000000	7.078221
744.000000	7.078946
743.000000	7.083485
742.000000	7.082781
741.000000	7.083243
740.000000	7.077786
739.000000	7.082028
738.000000	7.082969
737.000000	7.084878
736.000000	7.089778
735.000000	7.084572
734.000000	7.090455
733.000000	7.090231
732.000000	7.088385
731.000000	7.090981
730.000000	7.090809
729.000000	7.091265
728.000000	7.093849
727.000000	7.096617
726.000000	7.097808
725.000000	7.095984
724.000000	7.098842
723.000000	7.095525
722.000000	7.098383
721.000000	7.100750
720.000000	7.100478
719.000000	7.097668
718.000000	7.103545
717.000000	7.104640
716.000000	7.104222
715.000000	7.105554
714.000000	7.106778
713.000000	7.107413
712.000000	7.110771
711.000000	7.110173
710.000000	7.110356
709.000000	7.112921
708.000000	7.107386
707.000000	7.113966
706.000000	7.114858
705.000000	7.115799
704.000000	7.117433
703.000000	7.117592
702.000000	7.114997
701.000000	7.118285
700.000000	7.119493
699.000000	7.122004
698.000000	7.122772
697.000000	7.124019
696.000000	7.120680
695.000000	7.123749
694.000000	7.127131
693.000000	7.127046
692.000000	7.125021
691.000000	7.130949
690.000000	7.130243
689.000000	7.128869
688.000000	7.127200
687.000000	7.130749
686.000000	7.135156
685.000000	7.133641
684.000000	7.132354
683.000000	7.135065
682.000000	7.136297
681.000000	7.139547
680.000000	7.141376
679.000000	7.140123
678.000000	7.140519
677.000000	7.141299
676.000000	7.142471
675.000000	7.144504
674.000000	7.141554
673.000000	7.145464
672.000000	7.147902
671.000000	7.151577
670.000000	7.152269
669.000000	7.149580
668.000000	7.152383
667.000000	7.154791
666.000000	7.154914
665.000000	7.156528
664.000000	7.157115
663.000000	7.157479
662.000000	7.160047
661.000000	7.158756
660.000000	7.158828
659.000000	7.159433
658.000000	7.161620
657.000000	7.165308
656.000000	7.169918
655.000000	7.171130
654.000000	7.171056
653.000000	7.168723
652.000000	7.172503
651.000000	7.173201
650.000000	7.173560
649.000000	7.170880
648.000000	7.173987
647.000000	7.179766
646.000000	7.179715
645.000000	7.180005
644.000000	7.179081
643.000000	7.184605
642.000000	7.187013
641.000000	7.186077
640.000000	7.187213
639.000000	7.191941
638.000000	7.191686
637.000000	7.193126
636.000000	7.193329
635.000000	7.194873
634.000000	7.195939
633.000000	7.197320
632.000000	7.197411
631.000000	7.198398
630.000000	7.201143
629.000000	7.203303
628.000000	7.203252
627.000000	7.205180
626.000000	7.208038
625.000000	7.207885
624.000000	7.209044
623.000000	7.211254
622.000000	7.214688
621.000000	7.218261
620.000000	7.217567
619.000000	7.219449
618.000000	7.221189
617.000000	7.221510
616.000000	7.222040
615.000000	7.227232
614.000000	7.230338
613.000000	7.229652
612.000000	7.229208
611.000000	7.233421
610.000000	7.236601
609.000000	7.235693
608.000000	7.235181
607.000000	7.236049
606.000000	7.239260
605.000000	7.241036
604.000000	7.242793
603.000000	7.247869
602.000000	7.247707
601.000000	7.248342
600.000000	7.250732
599.000000	7.253242
598.000000	7.255520
597.000000	7.256731
596.000000	7.259855
595.000000	7.262740
594.000000	7.262046
593.000000	7.265199
592.000000	7.267897
591.000000	7.268057
590.000000	7.268577
589.000000	7.268417
588.000000	7.269936
587.000000	7.271437
586.000000	7.271855
585.000000	7.275777
584.000000	7.279838
583.000000	7.281986
582.000000	7.282503
581.000000	7.282214
580.000000	7.285079
579.000000	7.287086
578.000000	7.289842
577.000000	7.292944
576.000000	7.297153
575.000000	7.298064
574.000000	7.298839
573.000000	7.300753
572.000000	7.304110
571.000000	7.303991
570.000000	7.303497
569.000000	7.306523
568.000000	7.308831
567.000000	7.312848
566.000000	7.313729
565.000000	7.313560
564.000000	7.316051
563.000000	7.322588
562.000000	7.325884
561.000000	7.324729
560.000000	7.326964
559.000000	7.328835
558.000000	7.331022
557.000000	7.334159
556.000000	7.337025
555.000000	7.340265
554.000000	7.341909
553.000000	7.343275
552.000000	7.344643
551.000000	7.346346
550.000000	7.348829
549.000000	7.352571
548.000000	7.356060
547.000000	7.354399
546.000000	7.357616
545.000000	7.360407
544.000000	7.362689
543.000000	7.365699
542.000000	7.366674
541.000000	7.368963
540.000000	7.373152
539.000000	7.375754
538.000000	7.376216
537.000000	7.379807
536.000000	7.382091
535.000000	7.383582
534.000000	7.387841
533.000000	7.391764
532.000000	7.393654
531.000000	7.394602
530.000000	7.399497
529.000000	7.403823
528.000000	7.404475
527.000000	7.404767
526.000000	7.407057
525.000000	7.411590
524.000000	7.414463
523.000000	7.415481
522.000000	7.417625
521.000000	7.422351
520.000000	7.424849
519.000000	7.427241
518.000000	7.430609
517.000000	7.433908
516.000000	7.435961
515.000000	7.435146
514.000000	7.438256
513.000000	7.443967
512.000000	7.447717
511.000000	7.449868
510.000000	7.452051
509.000000	7.454586
508.000000	7.456849
507.000000	7.459578
506.000000	7.462117
505.000000	7.464668
504.000000	7.467263
503.000000	7.471767
502.000000	7.473731
501.000000	7.475651
500.000000	7.477895
499.000000	7.482209
498.000000	7.486900
497.000000	7.488125
496.000000	7.490468
495.000000	7.495558
494.000000	7.493792
493.000000	7.495083
492.000000	7.503689
491.000000	7.508130
490.000000	7.511589
489.000000	7.517677
488.000000	7.521736
487.000000	7.522397
486.000000	7.527570
485.000000	7.532198
484.000000	7.530332
483.000000	7.532745
482.000000	7.541057
481.000000	7.548120
480.000000	7.551258
479.000000	7.552729
478.000000	7.556994
477.000000	7.560345
476.000000	7.564049
475.000000	7.571242
474.000000	7.575033
473.000000	7.575066
472.000000	7.576184
471.000000	7.582577
470.000000	7.585551
469.000000	7.589203
468.000000	7.593380
467.000000	7.598382
466.000000	7.602129
465.000000	7.603679
464.000000	7.609148
463.000000	7.614123
462.000000	7.615224
461.000000	7.619182
460.000000	7.622850
459.000000	7.627560
458.000000	7.631223
457.000000	7.636418
456.000000	7.637707
455.000000	7.641574
454.000000	7.650054
453.000000	7.653910
452.000000	7.661498
451.000000	7.660804
450.000000	7.664967
449.000000	7.669951
448.000000	7.676145
447.000000	7.682171
446.000000	7.690621
445.000000	7.690779
444.000000	7.695232
443.000000	7.699235
442.000000	7.702157
441.000000	7.707278
440.000000	7.714434
439.000000	7.717777
438.000000	7.724366
437.000000	7.730456
436.000000	7.734842
435.000000	7.740698
434.000000	7.749571
433.000000	7.754500
432.000000	7.756472
431.000000	7.760367
430.000000	7.760989
429.000000	7.767841
428.000000	7.771397
427.000000	7.781731
426.000000	7.789111
425.000000	7.795721
424.000000	7.798531
423.000000	7.807190
422.000000	7.809746
421.000000	7.816860
420.000000	7.826439
419.000000	7.828291
418.000000	7.830824
417.000000	7.843730
416.000000	7.848357
415.000000	7.853706
414.000000	7.863260
413.000000	7.862046
412.000000	7.868811
411.000000	7.873337
410.000000	7.883959
409.000000	7.892599
408.000000	7.905043
407.000000	7.899949
406.000000	7.911318
405.000000	7.917844
404.000000	7.924654
403.000000	7.929734
402.000000	7.942723
401.000000	7.948923
400.000000	7.942636
399.000000	7.943455
398.000000	7.956639
397.000000	7.967937
396.000000	7.973134
395.000000	7.981683
394.000000	7.980694
393.000000	7.986607
392.000000	7.994177
391.000000	8.007926
390.000000	8.013748
389.000000	8.008929
388.000000	8.008336
387.000000	8.023694
386.000000	8.019972
385.000000	8.029919
384.000000	8.036956
383.000000	8.045822
382.000000	8.037782
381.000000	8.048632
380.000000	8.045591
379.000000	8.058766
378.000000	8.110615
377.000000	8.097806
376.000000	8.105066
375.000000	8.080989
374.000000	8.069392
373.000000	8.081235
372.000000	8.097286
371.000000	8.092632
370.000000	8.097943
369.000000	8.100512
368.000000	8.101866
367.000000	8.102641
366.000000	8.117243
365.000000	8.134151
364.000000	8.140442
363.000000	8.141231
362.000000	8.126717
361.000000	8.143656
360.000000	8.146414
359.000000	8.166384
358.000000	8.164378
357.000000	8.180695
356.000000	8.189912
355.000000	8.208216
354.000000	8.216727
353.000000	8.229010
352.000000	8.240252
351.000000	8.249072
350.000000	8.271491
