PE UV       SUBTECH     SPECTRUM    ASCII       PEDS        4.00        
   -1
sf10 sharpie.Sample.asc
18/07/06
13:26:28.00
18/07/06
13:26:28.00
Analyst
blank
350.000000
1
Lambda 950
950L1201053
PerkinElmer UV WinLab 6.0.4.0738 / 1.61.00 Lambda 900

0
0
3350/16 889.8/4
0
0
VIS
1
1
1
CommonBeamDepol,RBeamAtt,SBeamAtt,universal reflectance
0
0
0
0
Program
 
0
3350/0.28 889.8/0.28
0
0
0
 
 
 
0
 
889.8
150
889.8
Front
31
on
3350/S:100 3350/R:100
 
0
0
0
 
0
 
 
 
0
 
 
0
0
8.0
4.00
4.00
False
False
202L1112213
 
0
0


0
0
#HDR
-1
-1
#GR
nm
%R
1.0
0.0
880.000000
-1.000000
531
8
8.281517
6.829529
#DATA
880.000000	6.834833
879.000000	6.832721
878.000000	6.832410
877.000000	6.833810
876.000000	6.834859
875.000000	6.831866
874.000000	6.839601
873.000000	6.834887
872.000000	6.829529
871.000000	6.831113
870.000000	6.834856
869.000000	6.834851
868.000000	6.837857
867.000000	6.835316
866.000000	6.833906
865.000000	6.836623
864.000000	6.840897
863.000000	6.837722
862.000000	6.835879
861.000000	6.838489
860.000000	6.837673
859.000000	6.839252
858.000000	6.838340
857.000000	6.836909
856.000000	6.845342
855.000000	6.839785
854.000000	6.840757
853.000000	6.843443
852.000000	6.841707
851.000000	6.847378
850.000000	6.840514
849.000000	6.847015
848.000000	6.841218
847.000000	6.845622
846.000000	6.847632
845.000000	6.851351
844.000000	6.843299
843.000000	6.847531
842.000000	6.843736
841.000000	6.846307
840.000000	6.852341
839.000000	6.844475
838.000000	6.851007
837.000000	6.854118
836.000000	6.852440
835.000000	6.850890
834.000000	6.855001
833.000000	6.852471
832.000000	6.846117
831.000000	6.854551
830.000000	6.854400
829.000000	6.857678
828.000000	6.853692
827.000000	6.852502
826.000000	6.854100
825.000000	6.853449
824.000000	6.859680
823.000000	6.855105
822.000000	6.856372
821.000000	6.853862
820.000000	6.856141
819.000000	6.852828
818.000000	6.862168
817.000000	6.856818
816.000000	6.860819
815.000000	6.862378
814.000000	6.866278
813.000000	6.862671
812.000000	6.863452
811.000000	6.862693
810.000000	6.865734
809.000000	6.870711
808.000000	6.859822
807.000000	6.865762
806.000000	6.865681
805.000000	6.869477
804.000000	6.866493
803.000000	6.869817
802.000000	6.865940
801.000000	6.867353
800.000000	6.864612
799.000000	6.864643
798.000000	6.868790
797.000000	6.874118
796.000000	6.866015
795.000000	6.872088
794.000000	6.876519
793.000000	6.877355
792.000000	6.875493
791.000000	6.879198
790.000000	6.876672
789.000000	6.876048
788.000000	6.882231
787.000000	6.885963
786.000000	6.886032
785.000000	6.881334
784.000000	6.879589
783.000000	6.880018
782.000000	6.881693
781.000000	6.879002
780.000000	6.887077
779.000000	6.884182
778.000000	6.886724
777.000000	6.884835
776.000000	6.881078
775.000000	6.889010
774.000000	6.890581
773.000000	6.886973
772.000000	6.887615
771.000000	6.890681
770.000000	6.893171
769.000000	6.890801
768.000000	6.889459
767.000000	6.891735
766.000000	6.891227
765.000000	6.892567
764.000000	6.889698
763.000000	6.896548
762.000000	6.897403
761.000000	6.895759
760.000000	6.896521
759.000000	6.900032
758.000000	6.900972
757.000000	6.897313
756.000000	6.897651
755.000000	6.901913
754.000000	6.901028
753.000000	6.903767
752.000000	6.907867
751.000000	6.907886
750.000000	6.904451
749.000000	6.905563
748.000000	6.910786
747.000000	6.915544
746.000000	6.914297
745.000000	6.912429
744.000000	6.909671
743.000000	6.908800
742.000000	6.910729
741.000000	6.910466
740.000000	6.910052
739.000000	6.911493
738.000000	6.912921
737.000000	6.915221
736.000000	6.918731
735.000000	6.918035
734.000000	6.922464
733.000000	6.920089
732.000000	6.922474
731.000000	6.919572
730.000000	6.921470
729.000000	6.922218
728.000000	6.925943
727.000000	6.926195
726.000000	6.927796
725.000000	6.926790
724.000000	6.929647
723.000000	6.925079
722.000000	6.927562
721.000000	6.931881
720.000000	6.933847
719.000000	6.927314
718.000000	6.932960
717.000000	6.934234
716.000000	6.932239
715.000000	6.936130
714.000000	6.939896
713.000000	6.939252
712.000000	6.939739
711.000000	6.938551
710.000000	6.941687
709.000000	6.940096
708.000000	6.940271
707.000000	6.943851
706.000000	6.942639
705.000000	6.943210
704.000000	6.945886
703.000000	6.945340
702.000000	6.945179
701.000000	6.951004
700.000000	6.950418
699.000000	6.952485
698.000000	6.953485
697.000000	6.954778
696.000000	6.956252
695.000000	6.956225
694.000000	6.953740
693.000000	6.955208
692.000000	6.957062
691.000000	6.961851
690.000000	6.958758
689.000000	6.958265
688.000000	6.956279
687.000000	6.958389
686.000000	6.960932
685.000000	6.964747
684.000000	6.961787
683.000000	6.962883
682.000000	6.966463
681.000000	6.964518
680.000000	6.967622
679.000000	6.968296
678.000000	6.969983
677.000000	6.971270
676.000000	6.971983
675.000000	6.974884
674.000000	6.974838
673.000000	6.976084
672.000000	6.977471
671.000000	6.980569
670.000000	6.979662
669.000000	6.978594
668.000000	6.983945
667.000000	6.984034
666.000000	6.982497
665.000000	6.983564
664.000000	6.985868
663.000000	6.988580
662.000000	6.988086
661.000000	6.987314
660.000000	6.990359
659.000000	6.994297
658.000000	6.993582
657.000000	6.995483
656.000000	6.996436
655.000000	6.997200
654.000000	6.996949
653.000000	6.997656
652.000000	6.997261
651.000000	7.000108
650.000000	7.002185
649.000000	7.003075
648.000000	7.002731
647.000000	7.005443
646.000000	7.007197
645.000000	7.006014
644.000000	7.005473
643.000000	7.007161
642.000000	7.008893
641.000000	7.011258
640.000000	7.013956
639.000000	7.014639
638.000000	7.018999
637.000000	7.019850
636.000000	7.020772
635.000000	7.023408
634.000000	7.021144
633.000000	7.021623
632.000000	7.023617
631.000000	7.026974
630.000000	7.029541
629.000000	7.029406
628.000000	7.029308
627.000000	7.032177
626.000000	7.034531
625.000000	7.033402
624.000000	7.035739
623.000000	7.038942
622.000000	7.039857
621.000000	7.039048
620.000000	7.039288
619.000000	7.042166
618.000000	7.045573
617.000000	7.046409
616.000000	7.045165
615.000000	7.048833
614.000000	7.052052
613.000000	7.051791
612.000000	7.051954
611.000000	7.054912
610.000000	7.057199
609.000000	7.057783
608.000000	7.059678
607.000000	7.061319
606.000000	7.062844
605.000000	7.064908
604.000000	7.065718
603.000000	7.070955
602.000000	7.072623
601.000000	7.072349
600.000000	7.074135
599.000000	7.072788
598.000000	7.075055
597.000000	7.078990
596.000000	7.080037
595.000000	7.081498
594.000000	7.083538
593.000000	7.087490
592.000000	7.088373
591.000000	7.089516
590.000000	7.091414
589.000000	7.091999
588.000000	7.095107
587.000000	7.098612
586.000000	7.096393
585.000000	7.098590
584.000000	7.105836
583.000000	7.105653
582.000000	7.103945
581.000000	7.105918
580.000000	7.111497
579.000000	7.112943
578.000000	7.114296
577.000000	7.116899
576.000000	7.118465
575.000000	7.117858
574.000000	7.118204
573.000000	7.123145
572.000000	7.126164
571.000000	7.126118
570.000000	7.127508
569.000000	7.130899
568.000000	7.132950
567.000000	7.133121
566.000000	7.134718
565.000000	7.137854
564.000000	7.137640
563.000000	7.141867
562.000000	7.146649
561.000000	7.148369
560.000000	7.151085
559.000000	7.152929
558.000000	7.154836
557.000000	7.158055
556.000000	7.160053
555.000000	7.162093
554.000000	7.164956
553.000000	7.168354
552.000000	7.169150
551.000000	7.170225
550.000000	7.173422
549.000000	7.175741
548.000000	7.177916
547.000000	7.178361
546.000000	7.180561
545.000000	7.184433
544.000000	7.185748
543.000000	7.187881
542.000000	7.190783
541.000000	7.194703
540.000000	7.193963
539.000000	7.193575
538.000000	7.198707
537.000000	7.201095
536.000000	7.203586
535.000000	7.207139
534.000000	7.210289
533.000000	7.213083
532.000000	7.213916
531.000000	7.215314
530.000000	7.219710
529.000000	7.224683
528.000000	7.227459
527.000000	7.227808
526.000000	7.229414
525.000000	7.233027
524.000000	7.235559
523.000000	7.237407
522.000000	7.239338
521.000000	7.243526
520.000000	7.247696
519.000000	7.250456
518.000000	7.252069
517.000000	7.254604
516.000000	7.255677
515.000000	7.255280
514.000000	7.258748
513.000000	7.263943
512.000000	7.268353
511.000000	7.269881
510.000000	7.272849
509.000000	7.277080
508.000000	7.279020
507.000000	7.282530
506.000000	7.284908
505.000000	7.287319
504.000000	7.288169
503.000000	7.290327
502.000000	7.296788
501.000000	7.298485
500.000000	7.301893
499.000000	7.307693
498.000000	7.308669
497.000000	7.309531
496.000000	7.311367
495.000000	7.314549
494.000000	7.315509
493.000000	7.318291
492.000000	7.322768
491.000000	7.325438
490.000000	7.330030
489.000000	7.335374
488.000000	7.339602
487.000000	7.342762
486.000000	7.346588
485.000000	7.351322
484.000000	7.354843
483.000000	7.358610
482.000000	7.360210
481.000000	7.365560
480.000000	7.372537
479.000000	7.374122
478.000000	7.380208
477.000000	7.384453
476.000000	7.383401
475.000000	7.388085
474.000000	7.394984
473.000000	7.397064
472.000000	7.396989
471.000000	7.401221
470.000000	7.406363
469.000000	7.410468
468.000000	7.411831
467.000000	7.415564
466.000000	7.420702
465.000000	7.423455
464.000000	7.428646
463.000000	7.433660
462.000000	7.435638
461.000000	7.437402
460.000000	7.442453
459.000000	7.446773
458.000000	7.449742
457.000000	7.455187
456.000000	7.460737
455.000000	7.463286
454.000000	7.470385
453.000000	7.475626
452.000000	7.480572
451.000000	7.482803
450.000000	7.486285
449.000000	7.492027
448.000000	7.494584
447.000000	7.499982
446.000000	7.507806
445.000000	7.508199
444.000000	7.512579
443.000000	7.517542
442.000000	7.521676
441.000000	7.528556
440.000000	7.535087
439.000000	7.535900
438.000000	7.549233
437.000000	7.549361
436.000000	7.554789
435.000000	7.560692
434.000000	7.568073
433.000000	7.569986
432.000000	7.577475
431.000000	7.582346
430.000000	7.580615
429.000000	7.589726
428.000000	7.592810
427.000000	7.598666
426.000000	7.615086
425.000000	7.617842
424.000000	7.620306
423.000000	7.625113
422.000000	7.625153
421.000000	7.638925
420.000000	7.644781
419.000000	7.648289
418.000000	7.649590
417.000000	7.660512
416.000000	7.668340
415.000000	7.677862
414.000000	7.688169
413.000000	7.685627
412.000000	7.688249
411.000000	7.694784
410.000000	7.704287
409.000000	7.715828
408.000000	7.721582
407.000000	7.723827
406.000000	7.731086
405.000000	7.739413
404.000000	7.741117
403.000000	7.754689
402.000000	7.762689
401.000000	7.764081
400.000000	7.765856
399.000000	7.769484
398.000000	7.786725
397.000000	7.793192
396.000000	7.804307
395.000000	7.811752
394.000000	7.815216
393.000000	7.817984
392.000000	7.833131
391.000000	7.846949
390.000000	7.858529
389.000000	7.856316
388.000000	7.861871
387.000000	7.872482
386.000000	7.882323
385.000000	7.889802
384.000000	7.893973
383.000000	7.909406
382.000000	7.913817
381.000000	7.929297
380.000000	7.931276
379.000000	7.943122
378.000000	7.948660
377.000000	7.971695
376.000000	8.004560
375.000000	7.997121
374.000000	8.002824
373.000000	7.983396
372.000000	8.010707
371.000000	8.014129
370.000000	8.021313
369.000000	8.053393
368.000000	8.065512
367.000000	8.072082
366.000000	8.093462
365.000000	8.110354
364.000000	8.130819
363.000000	8.134843
362.000000	8.131643
361.000000	8.135954
360.000000	8.154950
359.000000	8.169800
358.000000	8.184559
357.000000	8.181201
356.000000	8.194661
355.000000	8.212077
354.000000	8.235414
353.000000	8.236869
352.000000	8.244438
351.000000	8.253699
350.000000	8.281517
