PE UV       SUBTECH     SPECTRUM    ASCII       PEDS        4.00        
   -1
180706-5 top.Sample.asc
18/07/06
14:03:16.00
18/07/06
14:03:16.00
Analyst
34s3fmt
350.000000
1
Lambda 950
950L1201053
PerkinElmer UV WinLab 6.0.4.0738 / 1.61.00 Lambda 900

0
0
3350/16 889.8/4
0
0
VIS
1
1
1
CommonBeamDepol,RBeamAtt,SBeamAtt,universal reflectance
0
0
0
0
Program
 
0
3350/0.28 889.8/0.28
0
0
0
 
 
 
0
 
889.8
150
889.8
Front
31
on
3350/S:100 3350/R:100
 
0
0
0
 
0
 
 
 
0
 
 
0
0
8.0
4.00
4.00
False
False
202L1112213
 
0
0


0
0
#HDR
-1
-1
#GR
nm
%R
1.0
0.0
880.000000
-1.000000
531
8
8.151784
1.168133
#DATA
880.000000	4.264745
879.000000	4.281000
878.000000	4.291836
877.000000	4.311102
876.000000	4.326183
875.000000	4.341706
874.000000	4.358093
873.000000	4.368255
872.000000	4.385903
871.000000	4.399909
870.000000	4.419889
869.000000	4.435424
868.000000	4.443022
867.000000	4.466035
866.000000	4.481145
865.000000	4.498578
864.000000	4.511072
863.000000	4.530208
862.000000	4.541626
861.000000	4.560247
860.000000	4.574969
859.000000	4.591511
858.000000	4.609551
857.000000	4.621760
856.000000	4.634968
855.000000	4.660340
854.000000	4.668951
853.000000	4.685766
852.000000	4.708123
851.000000	4.721595
850.000000	4.732461
849.000000	4.749155
848.000000	4.764616
847.000000	4.777699
846.000000	4.800434
845.000000	4.815349
844.000000	4.830127
843.000000	4.840190
842.000000	4.862746
841.000000	4.878198
840.000000	4.898346
839.000000	4.905325
838.000000	4.932290
837.000000	4.947896
836.000000	4.962019
835.000000	4.979271
834.000000	4.993078
833.000000	5.009154
832.000000	5.023926
831.000000	5.037630
830.000000	5.060052
829.000000	5.073890
828.000000	5.091256
827.000000	5.107626
826.000000	5.121254
825.000000	5.139233
824.000000	5.154986
823.000000	5.176637
822.000000	5.185245
821.000000	5.201879
820.000000	5.214754
819.000000	5.234646
818.000000	5.256550
817.000000	5.270869
816.000000	5.288299
815.000000	5.303719
814.000000	5.312844
813.000000	5.338193
812.000000	5.355637
811.000000	5.372637
810.000000	5.383336
809.000000	5.401973
808.000000	5.416247
807.000000	5.429401
806.000000	5.443650
805.000000	5.457764
804.000000	5.481503
803.000000	5.491160
802.000000	5.510388
801.000000	5.527444
800.000000	5.540299
799.000000	5.562636
798.000000	5.574086
797.000000	5.596065
796.000000	5.610625
795.000000	5.626331
794.000000	5.641571
793.000000	5.661850
792.000000	5.675148
791.000000	5.690707
790.000000	5.699955
789.000000	5.719257
788.000000	5.730273
787.000000	5.749180
786.000000	5.768884
785.000000	5.784230
784.000000	5.797002
783.000000	5.813890
782.000000	5.834444
781.000000	5.846498
780.000000	5.857823
779.000000	5.881724
778.000000	5.896263
777.000000	5.910370
776.000000	5.923061
775.000000	5.937428
774.000000	5.955062
773.000000	5.967714
772.000000	5.986188
771.000000	6.000883
770.000000	6.016293
769.000000	6.029788
768.000000	6.042563
767.000000	6.056443
766.000000	6.076974
765.000000	6.085271
764.000000	6.103162
763.000000	6.114679
762.000000	6.131461
761.000000	6.147317
760.000000	6.159852
759.000000	6.172398
758.000000	6.191898
757.000000	6.204407
756.000000	6.220947
755.000000	6.235481
754.000000	6.250338
753.000000	6.260756
752.000000	6.271232
751.000000	6.289888
750.000000	6.301393
749.000000	6.322005
748.000000	6.330360
747.000000	6.342756
746.000000	6.356835
745.000000	6.367662
744.000000	6.381996
743.000000	6.399740
742.000000	6.410397
741.000000	6.419390
740.000000	6.435878
739.000000	6.450238
738.000000	6.456072
737.000000	6.471644
736.000000	6.490487
735.000000	6.498924
734.000000	6.510198
733.000000	6.519891
732.000000	6.537295
731.000000	6.546094
730.000000	6.557602
729.000000	6.571361
728.000000	6.583558
727.000000	6.594219
726.000000	6.606662
725.000000	6.619540
724.000000	6.626396
723.000000	6.640815
722.000000	6.650118
721.000000	6.660924
720.000000	6.672374
719.000000	6.679555
718.000000	6.693070
717.000000	6.702740
716.000000	6.715486
715.000000	6.721663
714.000000	6.734002
713.000000	6.740132
712.000000	6.748753
711.000000	6.757745
710.000000	6.771663
709.000000	6.775898
708.000000	6.787196
707.000000	6.801903
706.000000	6.805473
705.000000	6.815892
704.000000	6.822613
703.000000	6.828173
702.000000	6.837094
701.000000	6.850368
700.000000	6.855795
699.000000	6.863355
698.000000	6.869153
697.000000	6.876361
696.000000	6.885034
695.000000	6.890319
694.000000	6.899313
693.000000	6.907116
692.000000	6.913032
691.000000	6.918984
690.000000	6.919888
689.000000	6.926712
688.000000	6.935824
687.000000	6.939642
686.000000	6.944616
685.000000	6.945799
684.000000	6.948897
683.000000	6.955868
682.000000	6.961941
681.000000	6.968803
680.000000	6.969731
679.000000	6.972890
678.000000	6.976672
677.000000	6.980555
676.000000	6.984135
675.000000	6.984931
674.000000	6.986382
673.000000	6.990276
672.000000	6.991858
671.000000	6.994899
670.000000	6.994641
669.000000	6.998760
668.000000	6.998087
667.000000	7.000805
666.000000	7.003166
665.000000	7.004191
664.000000	7.000563
663.000000	7.000360
662.000000	7.000512
661.000000	7.001728
660.000000	7.001634
659.000000	7.000713
658.000000	6.998254
657.000000	6.996148
656.000000	6.995000
655.000000	6.993596
654.000000	6.993728
653.000000	6.990745
652.000000	6.986779
651.000000	6.985097
650.000000	6.978846
649.000000	6.975139
648.000000	6.970071
647.000000	6.964961
646.000000	6.964030
645.000000	6.959671
644.000000	6.949837
643.000000	6.944216
642.000000	6.942404
641.000000	6.940063
640.000000	6.931424
639.000000	6.924014
638.000000	6.915783
637.000000	6.907262
636.000000	6.899415
635.000000	6.895285
634.000000	6.885956
633.000000	6.877848
632.000000	6.866805
631.000000	6.856631
630.000000	6.849399
629.000000	6.839863
628.000000	6.827879
627.000000	6.817957
626.000000	6.806612
625.000000	6.796460
624.000000	6.788366
623.000000	6.772598
622.000000	6.760642
621.000000	6.747015
620.000000	6.735952
619.000000	6.723613
618.000000	6.707663
617.000000	6.694481
616.000000	6.680331
615.000000	6.666500
614.000000	6.654279
613.000000	6.638493
612.000000	6.621722
611.000000	6.603543
610.000000	6.588635
609.000000	6.573865
608.000000	6.553772
607.000000	6.537378
606.000000	6.520323
605.000000	6.500359
604.000000	6.482991
603.000000	6.461335
602.000000	6.441007
601.000000	6.422666
600.000000	6.402866
599.000000	6.382671
598.000000	6.359785
597.000000	6.337883
596.000000	6.315750
595.000000	6.294770
594.000000	6.272975
593.000000	6.250168
592.000000	6.227818
591.000000	6.202874
590.000000	6.180715
589.000000	6.157535
588.000000	6.131136
587.000000	6.105004
586.000000	6.079383
585.000000	6.055316
584.000000	6.029792
583.000000	6.003112
582.000000	5.975327
581.000000	5.944261
580.000000	5.916160
579.000000	5.886780
578.000000	5.856619
577.000000	5.829295
576.000000	5.799653
575.000000	5.770226
574.000000	5.741144
573.000000	5.710056
572.000000	5.677936
571.000000	5.645225
570.000000	5.614349
569.000000	5.583429
568.000000	5.550524
567.000000	5.516024
566.000000	5.483028
565.000000	5.448852
564.000000	5.416229
563.000000	5.381611
562.000000	5.345155
561.000000	5.310492
560.000000	5.271064
559.000000	5.233780
558.000000	5.201334
557.000000	5.162851
556.000000	5.123302
555.000000	5.085798
554.000000	5.049852
553.000000	5.014662
552.000000	4.972645
551.000000	4.932309
550.000000	4.895900
549.000000	4.854161
548.000000	4.811445
547.000000	4.772002
546.000000	4.733539
545.000000	4.692325
544.000000	4.651543
543.000000	4.611035
542.000000	4.568258
541.000000	4.525418
540.000000	4.482166
539.000000	4.438936
538.000000	4.395704
537.000000	4.351655
536.000000	4.307998
535.000000	4.264277
534.000000	4.220937
533.000000	4.178315
532.000000	4.132825
531.000000	4.087611
530.000000	4.042520
529.000000	3.995636
528.000000	3.949241
527.000000	3.903820
526.000000	3.859868
525.000000	3.815135
524.000000	3.768571
523.000000	3.722355
522.000000	3.675850
521.000000	3.629808
520.000000	3.583203
519.000000	3.536645
518.000000	3.489356
517.000000	3.441367
516.000000	3.396234
515.000000	3.350167
514.000000	3.303223
513.000000	3.256780
512.000000	3.210506
511.000000	3.164500
510.000000	3.117338
509.000000	3.070876
508.000000	3.026436
507.000000	2.981310
506.000000	2.936405
505.000000	2.891735
504.000000	2.847530
503.000000	2.802649
502.000000	2.757965
501.000000	2.713700
500.000000	2.667920
499.000000	2.622339
498.000000	2.579131
497.000000	2.534307
496.000000	2.489129
495.000000	2.443949
494.000000	2.399772
493.000000	2.355395
492.000000	2.311217
491.000000	2.267162
490.000000	2.223442
489.000000	2.181524
488.000000	2.138481
487.000000	2.098479
486.000000	2.056549
485.000000	2.013634
484.000000	1.973844
483.000000	1.933436
482.000000	1.893164
481.000000	1.856389
480.000000	1.819234
479.000000	1.782938
478.000000	1.748438
477.000000	1.714305
476.000000	1.681711
475.000000	1.649468
474.000000	1.617239
473.000000	1.587316
472.000000	1.557538
471.000000	1.526607
470.000000	1.497209
469.000000	1.471178
468.000000	1.445837
467.000000	1.421162
466.000000	1.396756
465.000000	1.373009
464.000000	1.350804
463.000000	1.329297
462.000000	1.310335
461.000000	1.291496
460.000000	1.273140
459.000000	1.256924
458.000000	1.242516
457.000000	1.228557
456.000000	1.216946
455.000000	1.204695
454.000000	1.195812
453.000000	1.187724
452.000000	1.180386
451.000000	1.172529
450.000000	1.169701
449.000000	1.169405
448.000000	1.168716
447.000000	1.168133
446.000000	1.170753
445.000000	1.174666
444.000000	1.183255
443.000000	1.188662
442.000000	1.199654
441.000000	1.208731
440.000000	1.221919
439.000000	1.238113
438.000000	1.253204
437.000000	1.271053
436.000000	1.291084
435.000000	1.312057
434.000000	1.334542
433.000000	1.362515
432.000000	1.391248
431.000000	1.419875
430.000000	1.447152
429.000000	1.482474
428.000000	1.519736
427.000000	1.557805
426.000000	1.594525
425.000000	1.638937
424.000000	1.683329
423.000000	1.724277
422.000000	1.772416
421.000000	1.825216
420.000000	1.873456
419.000000	1.929578
418.000000	1.982584
417.000000	2.041940
416.000000	2.104237
415.000000	2.161000
414.000000	2.222954
413.000000	2.286485
412.000000	2.357512
411.000000	2.425954
410.000000	2.491786
409.000000	2.566476
408.000000	2.649365
407.000000	2.720587
406.000000	2.799538
405.000000	2.877785
404.000000	2.955918
403.000000	3.043153
402.000000	3.134132
401.000000	3.220371
400.000000	3.305765
399.000000	3.395913
398.000000	3.488116
397.000000	3.585921
396.000000	3.680461
395.000000	3.771414
394.000000	3.865039
393.000000	3.968811
392.000000	4.063408
391.000000	4.175488
390.000000	4.272334
389.000000	4.371205
388.000000	4.473548
387.000000	4.588360
386.000000	4.683516
385.000000	4.785774
384.000000	4.894098
383.000000	5.002829
382.000000	5.111687
381.000000	5.216412
380.000000	5.332561
379.000000	5.441571
378.000000	5.587051
377.000000	5.663044
376.000000	5.811568
375.000000	5.888226
374.000000	5.980720
373.000000	6.110441
372.000000	6.225545
371.000000	6.314343
370.000000	6.422627
369.000000	6.533849
368.000000	6.629308
367.000000	6.737717
366.000000	6.837947
365.000000	6.943855
364.000000	7.044213
363.000000	7.138905
362.000000	7.205033
361.000000	7.302138
360.000000	7.385808
359.000000	7.477701
358.000000	7.580782
357.000000	7.664853
356.000000	7.723221
355.000000	7.809519
354.000000	7.879845
353.000000	7.963830
352.000000	8.037010
351.000000	8.103115
350.000000	8.151784
