PE UV       SUBTECH     SPECTRUM    ASCII       PEDS        4.00        
   -1
180706-5 mid.Sample.asc
18/07/06
14:07:29.00
18/07/06
14:07:29.00
Analyst
34s3fmt
350.000000
1
Lambda 950
950L1201053
PerkinElmer UV WinLab 6.0.4.0738 / 1.61.00 Lambda 900

0
0
3350/16 889.8/4
0
0
VIS
1
1
1
CommonBeamDepol,RBeamAtt,SBeamAtt,universal reflectance
0
0
0
0
Program
 
0
3350/0.28 889.8/0.28
0
0
0
 
 
 
0
 
889.8
150
889.8
Front
31
on
3350/S:100 3350/R:100
 
0
0
0
 
0
 
 
 
0
 
 
0
0
8.0
4.00
4.00
False
False
202L1112213
 
0
0


0
0
#HDR
-1
-1
#GR
nm
%R
1.0
0.0
880.000000
-1.000000
531
8
8.406947
1.179677
#DATA
880.000000	4.604829
879.000000	4.620873
878.000000	4.631442
877.000000	4.651149
876.000000	4.664496
875.000000	4.682035
874.000000	4.693617
873.000000	4.711002
872.000000	4.726842
871.000000	4.742975
870.000000	4.753940
869.000000	4.773923
868.000000	4.785248
867.000000	4.801533
866.000000	4.819687
865.000000	4.837057
864.000000	4.851135
863.000000	4.865345
862.000000	4.882004
861.000000	4.900488
860.000000	4.916232
859.000000	4.931526
858.000000	4.946031
857.000000	4.959233
856.000000	4.972079
855.000000	4.993234
854.000000	5.008308
853.000000	5.025424
852.000000	5.045722
851.000000	5.051899
850.000000	5.071685
849.000000	5.088203
848.000000	5.104628
847.000000	5.118264
846.000000	5.130052
845.000000	5.151623
844.000000	5.157728
843.000000	5.178212
842.000000	5.190149
841.000000	5.208775
840.000000	5.227379
839.000000	5.249051
838.000000	5.261723
837.000000	5.282742
836.000000	5.293533
835.000000	5.311626
834.000000	5.321515
833.000000	5.342218
832.000000	5.352050
831.000000	5.368760
830.000000	5.388927
829.000000	5.396177
828.000000	5.419266
827.000000	5.434209
826.000000	5.442887
825.000000	5.460376
824.000000	5.477678
823.000000	5.494019
822.000000	5.515697
821.000000	5.520788
820.000000	5.534952
819.000000	5.556938
818.000000	5.574874
817.000000	5.588360
816.000000	5.612144
815.000000	5.621103
814.000000	5.635181
813.000000	5.651055
812.000000	5.666816
811.000000	5.682318
810.000000	5.693319
809.000000	5.715084
808.000000	5.722249
807.000000	5.742780
806.000000	5.755106
805.000000	5.773375
804.000000	5.789392
803.000000	5.798698
802.000000	5.822856
801.000000	5.835013
800.000000	5.846998
799.000000	5.865800
798.000000	5.878767
797.000000	5.893012
796.000000	5.913300
795.000000	5.924373
794.000000	5.944670
793.000000	5.954152
792.000000	5.974193
791.000000	5.985721
790.000000	5.995314
789.000000	6.012316
788.000000	6.025846
787.000000	6.042987
786.000000	6.059650
785.000000	6.073201
784.000000	6.087766
783.000000	6.095002
782.000000	6.113134
781.000000	6.123153
780.000000	6.139826
779.000000	6.159368
778.000000	6.171393
777.000000	6.183543
776.000000	6.198437
775.000000	6.215817
774.000000	6.224421
773.000000	6.239735
772.000000	6.250441
771.000000	6.267989
770.000000	6.279905
769.000000	6.294069
768.000000	6.304303
767.000000	6.319723
766.000000	6.330488
765.000000	6.343158
764.000000	6.354825
763.000000	6.365262
762.000000	6.381556
761.000000	6.398071
760.000000	6.408715
759.000000	6.416642
758.000000	6.433550
757.000000	6.449470
756.000000	6.460885
755.000000	6.474916
754.000000	6.484108
753.000000	6.496198
752.000000	6.505686
751.000000	6.520021
750.000000	6.533390
749.000000	6.546826
748.000000	6.553703
747.000000	6.566175
746.000000	6.576552
745.000000	6.588161
744.000000	6.596953
743.000000	6.612809
742.000000	6.622526
741.000000	6.629606
740.000000	6.641593
739.000000	6.653552
738.000000	6.658301
737.000000	6.673447
736.000000	6.684371
735.000000	6.697471
734.000000	6.700658
733.000000	6.709564
732.000000	6.723644
731.000000	6.733259
730.000000	6.740808
729.000000	6.749681
728.000000	6.763260
727.000000	6.770220
726.000000	6.777292
725.000000	6.785960
724.000000	6.791691
723.000000	6.804499
722.000000	6.810379
721.000000	6.817751
720.000000	6.826541
719.000000	6.836766
718.000000	6.842630
717.000000	6.847249
716.000000	6.857786
715.000000	6.860106
714.000000	6.871578
713.000000	6.875720
712.000000	6.882219
711.000000	6.886456
710.000000	6.897253
709.000000	6.898010
708.000000	6.907092
707.000000	6.919188
706.000000	6.922503
705.000000	6.929419
704.000000	6.931063
703.000000	6.934774
702.000000	6.940014
701.000000	6.949461
700.000000	6.951249
699.000000	6.953338
698.000000	6.959372
697.000000	6.960748
696.000000	6.963131
695.000000	6.964857
694.000000	6.971833
693.000000	6.972919
692.000000	6.978244
691.000000	6.983359
690.000000	6.981496
689.000000	6.983718
688.000000	6.985716
687.000000	6.988588
686.000000	6.988089
685.000000	6.987127
684.000000	6.989037
683.000000	6.993289
682.000000	6.994427
681.000000	6.991314
680.000000	6.991886
679.000000	6.992374
678.000000	6.992947
677.000000	6.993212
676.000000	6.990968
675.000000	6.990872
674.000000	6.991194
673.000000	6.988434
672.000000	6.986273
671.000000	6.982479
670.000000	6.979310
669.000000	6.977782
668.000000	6.975206
667.000000	6.975307
666.000000	6.965964
665.000000	6.963769
664.000000	6.960030
663.000000	6.959280
662.000000	6.952240
661.000000	6.947561
660.000000	6.941999
659.000000	6.933234
658.000000	6.930346
657.000000	6.921583
656.000000	6.913967
655.000000	6.914561
654.000000	6.908235
653.000000	6.895996
652.000000	6.889229
651.000000	6.883610
650.000000	6.874986
649.000000	6.867347
648.000000	6.860835
647.000000	6.851616
646.000000	6.842681
645.000000	6.833855
644.000000	6.819929
643.000000	6.808739
642.000000	6.801185
641.000000	6.791203
640.000000	6.777567
639.000000	6.766210
638.000000	6.755117
637.000000	6.740601
636.000000	6.728931
635.000000	6.717765
634.000000	6.704813
633.000000	6.692356
632.000000	6.676350
631.000000	6.661636
630.000000	6.649449
629.000000	6.636703
628.000000	6.619656
627.000000	6.605000
626.000000	6.586339
625.000000	6.570571
624.000000	6.558362
623.000000	6.541541
622.000000	6.522675
621.000000	6.503468
620.000000	6.487684
619.000000	6.469890
618.000000	6.450070
617.000000	6.430616
616.000000	6.413679
615.000000	6.393980
614.000000	6.373083
613.000000	6.351424
612.000000	6.331624
611.000000	6.308608
610.000000	6.287318
609.000000	6.268682
608.000000	6.244055
607.000000	6.222541
606.000000	6.201212
605.000000	6.174741
604.000000	6.153334
603.000000	6.128441
602.000000	6.100709
601.000000	6.079096
600.000000	6.053722
599.000000	6.026502
598.000000	6.001579
597.000000	5.974240
596.000000	5.948217
595.000000	5.922085
594.000000	5.894198
593.000000	5.865275
592.000000	5.837156
591.000000	5.808559
590.000000	5.781133
589.000000	5.752138
588.000000	5.721336
587.000000	5.689426
586.000000	5.661308
585.000000	5.630520
584.000000	5.597507
583.000000	5.568111
582.000000	5.537454
581.000000	5.503069
580.000000	5.468949
579.000000	5.438096
578.000000	5.405253
577.000000	5.368777
576.000000	5.334313
575.000000	5.301653
574.000000	5.267588
573.000000	5.232126
572.000000	5.195463
571.000000	5.158777
570.000000	5.123946
569.000000	5.087821
568.000000	5.051936
567.000000	5.015673
566.000000	4.977420
565.000000	4.938266
564.000000	4.902519
563.000000	4.865602
562.000000	4.824441
561.000000	4.783949
560.000000	4.742371
559.000000	4.703385
558.000000	4.665145
557.000000	4.623586
556.000000	4.582598
555.000000	4.544240
554.000000	4.503408
553.000000	4.461841
552.000000	4.420303
551.000000	4.378899
550.000000	4.338509
549.000000	4.295614
548.000000	4.249565
547.000000	4.207005
546.000000	4.163136
545.000000	4.119000
544.000000	4.077317
543.000000	4.033720
542.000000	3.990903
541.000000	3.947387
540.000000	3.902971
539.000000	3.857930
538.000000	3.812087
537.000000	3.768050
536.000000	3.724720
535.000000	3.680671
534.000000	3.635201
533.000000	3.590463
532.000000	3.544929
531.000000	3.498805
530.000000	3.453664
529.000000	3.407309
528.000000	3.360062
527.000000	3.315011
526.000000	3.271004
525.000000	3.226344
524.000000	3.181265
523.000000	3.135228
522.000000	3.088964
521.000000	3.043267
520.000000	2.997150
519.000000	2.952485
518.000000	2.907685
517.000000	2.862587
516.000000	2.819535
515.000000	2.775833
514.000000	2.730855
513.000000	2.686448
512.000000	2.643070
511.000000	2.599899
510.000000	2.557444
509.000000	2.515059
508.000000	2.473166
507.000000	2.431770
506.000000	2.391012
505.000000	2.350330
504.000000	2.310260
503.000000	2.270545
502.000000	2.230636
501.000000	2.191292
500.000000	2.151730
499.000000	2.112069
498.000000	2.073344
497.000000	2.034465
496.000000	1.996343
495.000000	1.959055
494.000000	1.919817
493.000000	1.881934
492.000000	1.846602
491.000000	1.811583
490.000000	1.776027
489.000000	1.739432
488.000000	1.704641
487.000000	1.674730
486.000000	1.642835
485.000000	1.609492
484.000000	1.578845
483.000000	1.549955
482.000000	1.521110
481.000000	1.493171
480.000000	1.466289
479.000000	1.441324
478.000000	1.416771
477.000000	1.393859
476.000000	1.372121
475.000000	1.352476
474.000000	1.333079
473.000000	1.313471
472.000000	1.296072
471.000000	1.278542
470.000000	1.262370
469.000000	1.249260
468.000000	1.236952
467.000000	1.225261
466.000000	1.214253
465.000000	1.204374
464.000000	1.197229
463.000000	1.190523
462.000000	1.185088
461.000000	1.181681
460.000000	1.179677
459.000000	1.180325
458.000000	1.180950
457.000000	1.182901
456.000000	1.186516
455.000000	1.190960
454.000000	1.196842
453.000000	1.205228
452.000000	1.216926
451.000000	1.227766
450.000000	1.241245
449.000000	1.256113
448.000000	1.272285
447.000000	1.291777
446.000000	1.314982
445.000000	1.335607
444.000000	1.362220
443.000000	1.387750
442.000000	1.415707
441.000000	1.444023
440.000000	1.474005
439.000000	1.509118
438.000000	1.543506
437.000000	1.578431
436.000000	1.617772
435.000000	1.657637
434.000000	1.702221
433.000000	1.745733
432.000000	1.793551
431.000000	1.840722
430.000000	1.890596
429.000000	1.942742
428.000000	1.996156
427.000000	2.051610
426.000000	2.110324
425.000000	2.166409
424.000000	2.226673
423.000000	2.290089
422.000000	2.354353
421.000000	2.422062
420.000000	2.490789
419.000000	2.561947
418.000000	2.633542
417.000000	2.708332
416.000000	2.782629
415.000000	2.858212
414.000000	2.936556
413.000000	3.012933
412.000000	3.094088
411.000000	3.180741
410.000000	3.262628
409.000000	3.355639
408.000000	3.443897
407.000000	3.533570
406.000000	3.623618
405.000000	3.713377
404.000000	3.803821
403.000000	3.899967
402.000000	3.996707
401.000000	4.091199
400.000000	4.188828
399.000000	4.287597
398.000000	4.385775
397.000000	4.489205
396.000000	4.588747
395.000000	4.689376
394.000000	4.786885
393.000000	4.889616
392.000000	4.990474
391.000000	5.099365
390.000000	5.203503
389.000000	5.304258
388.000000	5.409309
387.000000	5.516486
386.000000	5.608093
385.000000	5.710362
384.000000	5.822893
383.000000	5.925667
382.000000	6.025644
381.000000	6.131215
380.000000	6.229890
379.000000	6.333542
378.000000	6.475695
377.000000	6.588477
376.000000	6.668158
375.000000	6.750699
374.000000	6.828676
373.000000	6.952016
372.000000	7.023853
371.000000	7.100652
370.000000	7.211440
369.000000	7.288995
368.000000	7.367682
367.000000	7.474082
366.000000	7.554959
365.000000	7.646678
364.000000	7.708569
363.000000	7.764529
362.000000	7.826399
361.000000	7.899682
360.000000	7.963678
359.000000	8.008272
358.000000	8.073692
357.000000	8.128153
356.000000	8.172751
355.000000	8.224759
354.000000	8.269242
353.000000	8.300909
352.000000	8.348339
351.000000	8.383981
350.000000	8.406947
