PE UV       SUBTECH     SPECTRUM    ASCII       PEDS        4.00        
   -1
180706-5 mid high.Sample.asc
18/07/06
14:17:44.00
18/07/06
14:17:44.00
Analyst
34s3fmt
350.000000
1
Lambda 950
950L1201053
PerkinElmer UV WinLab 6.0.4.0738 / 1.61.00 Lambda 900

0
0
3350/16 889.8/4
0
0
VIS
1
1
1
CommonBeamDepol,RBeamAtt,SBeamAtt,universal reflectance
0
0
0
0
Program
 
0
3350/0.28 889.8/0.28
0
0
0
 
 
 
0
 
889.8
150
889.8
Front
31
on
3350/S:100 3350/R:100
 
0
0
0
 
0
 
 
 
0
 
 
0
0
8.0
4.00
4.00
False
False
202L1112213
 
0
0


0
0
#HDR
-1
-1
#GR
nm
%R
1.0
0.0
880.000000
-1.000000
531
8
8.356769
1.197492
#DATA
880.000000	4.854809
879.000000	4.872225
878.000000	4.880336
877.000000	4.898027
876.000000	4.914867
875.000000	4.928753
874.000000	4.946117
873.000000	4.955610
872.000000	4.973406
871.000000	4.990174
870.000000	5.009057
869.000000	5.022818
868.000000	5.036229
867.000000	5.053038
866.000000	5.067844
865.000000	5.084750
864.000000	5.099056
863.000000	5.111581
862.000000	5.126264
861.000000	5.146746
860.000000	5.161319
859.000000	5.171373
858.000000	5.190942
857.000000	5.202070
856.000000	5.217138
855.000000	5.236255
854.000000	5.246479
853.000000	5.264168
852.000000	5.287804
851.000000	5.298501
850.000000	5.310090
849.000000	5.331380
848.000000	5.345359
847.000000	5.357662
846.000000	5.371970
845.000000	5.386427
844.000000	5.394975
843.000000	5.413925
842.000000	5.424280
841.000000	5.446784
840.000000	5.463514
839.000000	5.475154
838.000000	5.492291
837.000000	5.508805
836.000000	5.520914
835.000000	5.539237
834.000000	5.553381
833.000000	5.572934
832.000000	5.585584
831.000000	5.602956
830.000000	5.616829
829.000000	5.621285
828.000000	5.651683
827.000000	5.658465
826.000000	5.676096
825.000000	5.685164
824.000000	5.710192
823.000000	5.717987
822.000000	5.737682
821.000000	5.741963
820.000000	5.763029
819.000000	5.780826
818.000000	5.790934
817.000000	5.805982
816.000000	5.829269
815.000000	5.835148
814.000000	5.848826
813.000000	5.864675
812.000000	5.882322
811.000000	5.900311
810.000000	5.912930
809.000000	5.926818
808.000000	5.938293
807.000000	5.956334
806.000000	5.966328
805.000000	5.974813
804.000000	5.992750
803.000000	6.007388
802.000000	6.020630
801.000000	6.035524
800.000000	6.050493
799.000000	6.065055
798.000000	6.081729
797.000000	6.093829
796.000000	6.110410
795.000000	6.115683
794.000000	6.136936
793.000000	6.148387
792.000000	6.168329
791.000000	6.177586
790.000000	6.186795
789.000000	6.200504
788.000000	6.206193
787.000000	6.227180
786.000000	6.247891
785.000000	6.255515
784.000000	6.266963
783.000000	6.281955
782.000000	6.295206
781.000000	6.302919
780.000000	6.314311
779.000000	6.337239
778.000000	6.341887
777.000000	6.359761
776.000000	6.367142
775.000000	6.385677
774.000000	6.395146
773.000000	6.408256
772.000000	6.418241
771.000000	6.436541
770.000000	6.445434
769.000000	6.454882
768.000000	6.458275
767.000000	6.476682
766.000000	6.493444
765.000000	6.500288
764.000000	6.508873
763.000000	6.517428
762.000000	6.528587
761.000000	6.544014
760.000000	6.555789
759.000000	6.563984
758.000000	6.578862
757.000000	6.587555
756.000000	6.599172
755.000000	6.608912
754.000000	6.624121
753.000000	6.632144
752.000000	6.642297
751.000000	6.651059
750.000000	6.662423
749.000000	6.672359
748.000000	6.678284
747.000000	6.688451
746.000000	6.693979
745.000000	6.707166
744.000000	6.714910
743.000000	6.727005
742.000000	6.737974
741.000000	6.742818
740.000000	6.751426
739.000000	6.762631
738.000000	6.764075
737.000000	6.774972
736.000000	6.785439
735.000000	6.791964
734.000000	6.793988
733.000000	6.801759
732.000000	6.813256
731.000000	6.822863
730.000000	6.827393
729.000000	6.835130
728.000000	6.846223
727.000000	6.849341
726.000000	6.859846
725.000000	6.862399
724.000000	6.864304
723.000000	6.873809
722.000000	6.878154
721.000000	6.886660
720.000000	6.893970
719.000000	6.896812
718.000000	6.901551
717.000000	6.902131
716.000000	6.913518
715.000000	6.914330
714.000000	6.922070
713.000000	6.921629
712.000000	6.925875
711.000000	6.927677
710.000000	6.935054
709.000000	6.933171
708.000000	6.940304
707.000000	6.947602
706.000000	6.948536
705.000000	6.952303
704.000000	6.954655
703.000000	6.954264
702.000000	6.953444
701.000000	6.962598
700.000000	6.961234
699.000000	6.964096
698.000000	6.964245
697.000000	6.965384
696.000000	6.965746
695.000000	6.963134
694.000000	6.963630
693.000000	6.964835
692.000000	6.967603
691.000000	6.964397
690.000000	6.960762
689.000000	6.962934
688.000000	6.961720
687.000000	6.960611
686.000000	6.960414
685.000000	6.954291
684.000000	6.953350
683.000000	6.949750
682.000000	6.950063
681.000000	6.943442
680.000000	6.942408
679.000000	6.940931
678.000000	6.937173
677.000000	6.932722
676.000000	6.926086
675.000000	6.922784
674.000000	6.916697
673.000000	6.917727
672.000000	6.908498
671.000000	6.901900
670.000000	6.895109
669.000000	6.889771
668.000000	6.883679
667.000000	6.878483
666.000000	6.869455
665.000000	6.864675
664.000000	6.854656
663.000000	6.850129
662.000000	6.840597
661.000000	6.832449
660.000000	6.823026
659.000000	6.816528
658.000000	6.807255
657.000000	6.797070
656.000000	6.783827
655.000000	6.778791
654.000000	6.769258
653.000000	6.755984
652.000000	6.746653
651.000000	6.735662
650.000000	6.721753
649.000000	6.709288
648.000000	6.697815
647.000000	6.685317
646.000000	6.673543
645.000000	6.661080
644.000000	6.646164
643.000000	6.630841
642.000000	6.619558
641.000000	6.605559
640.000000	6.589605
639.000000	6.574000
638.000000	6.559985
637.000000	6.542750
636.000000	6.526125
635.000000	6.511899
634.000000	6.492824
633.000000	6.475839
632.000000	6.458262
631.000000	6.441507
630.000000	6.422518
629.000000	6.404708
628.000000	6.386053
627.000000	6.368805
626.000000	6.347356
625.000000	6.328355
624.000000	6.309464
623.000000	6.287479
622.000000	6.267305
621.000000	6.246629
620.000000	6.222902
619.000000	6.202751
618.000000	6.178048
617.000000	6.156076
616.000000	6.134738
615.000000	6.109591
614.000000	6.087473
613.000000	6.063997
612.000000	6.040034
611.000000	6.012956
610.000000	5.986478
609.000000	5.960157
608.000000	5.933383
607.000000	5.909734
606.000000	5.884966
605.000000	5.856765
604.000000	5.830722
603.000000	5.801279
602.000000	5.772053
601.000000	5.744663
600.000000	5.717003
599.000000	5.687535
598.000000	5.657291
597.000000	5.626068
596.000000	5.597830
595.000000	5.568225
594.000000	5.537836
593.000000	5.506025
592.000000	5.475372
591.000000	5.444433
590.000000	5.412528
589.000000	5.380245
588.000000	5.346236
587.000000	5.312671
586.000000	5.279248
585.000000	5.245750
584.000000	5.213154
583.000000	5.178178
582.000000	5.143631
581.000000	5.108864
580.000000	5.072319
579.000000	5.036651
578.000000	4.999216
577.000000	4.962455
576.000000	4.925561
575.000000	4.888843
574.000000	4.853159
573.000000	4.815368
572.000000	4.776138
571.000000	4.737217
570.000000	4.700656
569.000000	4.663656
568.000000	4.624378
567.000000	4.584250
566.000000	4.544771
565.000000	4.504765
564.000000	4.465664
563.000000	4.427471
562.000000	4.385888
561.000000	4.342493
560.000000	4.298858
559.000000	4.257591
558.000000	4.218831
557.000000	4.176986
556.000000	4.134248
555.000000	4.091868
554.000000	4.050165
553.000000	4.008875
552.000000	3.966311
551.000000	3.923930
550.000000	3.881361
549.000000	3.836528
548.000000	3.791046
547.000000	3.748483
546.000000	3.704546
545.000000	3.661535
544.000000	3.618926
543.000000	3.575103
542.000000	3.531422
541.000000	3.488777
540.000000	3.443286
539.000000	3.397849
538.000000	3.354995
537.000000	3.310824
536.000000	3.266875
535.000000	3.223739
534.000000	3.179266
533.000000	3.136156
532.000000	3.091220
531.000000	3.046665
530.000000	3.002483
529.000000	2.957265
528.000000	2.912514
527.000000	2.869633
526.000000	2.827385
525.000000	2.784963
524.000000	2.742136
523.000000	2.698977
522.000000	2.655398
521.000000	2.612008
520.000000	2.569567
519.000000	2.527614
518.000000	2.486076
517.000000	2.444552
516.000000	2.404487
515.000000	2.364114
514.000000	2.322687
513.000000	2.283084
512.000000	2.244496
511.000000	2.205228
510.000000	2.166878
509.000000	2.128981
508.000000	2.091876
507.000000	2.055432
506.000000	2.019579
505.000000	1.984269
504.000000	1.948742
503.000000	1.913993
502.000000	1.879901
501.000000	1.846446
500.000000	1.813476
499.000000	1.780485
498.000000	1.747633
497.000000	1.715960
496.000000	1.685635
495.000000	1.655152
494.000000	1.624967
493.000000	1.595463
492.000000	1.566084
491.000000	1.537864
490.000000	1.510485
489.000000	1.483947
488.000000	1.458299
487.000000	1.436439
486.000000	1.414625
485.000000	1.391272
484.000000	1.370954
483.000000	1.350078
482.000000	1.329945
481.000000	1.313114
480.000000	1.296851
479.000000	1.281177
478.000000	1.266474
477.000000	1.254193
476.000000	1.243962
475.000000	1.234666
474.000000	1.224358
473.000000	1.216569
472.000000	1.209525
471.000000	1.203441
470.000000	1.199020
469.000000	1.197492
468.000000	1.198033
467.000000	1.198508
466.000000	1.199789
465.000000	1.202066
464.000000	1.205664
463.000000	1.212773
462.000000	1.220051
461.000000	1.228927
460.000000	1.239726
459.000000	1.251963
458.000000	1.265316
457.000000	1.280382
456.000000	1.297527
455.000000	1.315302
454.000000	1.334210
453.000000	1.357555
452.000000	1.383571
451.000000	1.406998
450.000000	1.433060
449.000000	1.464139
448.000000	1.494001
447.000000	1.527873
446.000000	1.563683
445.000000	1.599596
444.000000	1.639301
443.000000	1.678137
442.000000	1.721211
441.000000	1.761087
440.000000	1.805189
439.000000	1.853501
438.000000	1.902316
437.000000	1.950111
436.000000	2.003934
435.000000	2.057816
434.000000	2.114168
433.000000	2.171450
432.000000	2.232110
431.000000	2.291467
430.000000	2.352121
429.000000	2.414048
428.000000	2.484354
427.000000	2.552410
426.000000	2.617350
425.000000	2.687928
424.000000	2.759886
423.000000	2.835570
422.000000	2.909930
421.000000	2.988288
420.000000	3.065828
419.000000	3.146528
418.000000	3.227789
417.000000	3.313930
416.000000	3.397065
415.000000	3.480090
414.000000	3.562897
413.000000	3.651339
412.000000	3.741365
411.000000	3.832531
410.000000	3.919965
409.000000	4.017534
408.000000	4.113909
407.000000	4.209378
406.000000	4.306016
405.000000	4.399527
404.000000	4.490526
403.000000	4.586185
402.000000	4.686692
401.000000	4.784050
400.000000	4.877581
399.000000	4.981225
398.000000	5.084525
397.000000	5.186056
396.000000	5.282830
395.000000	5.385137
394.000000	5.483668
393.000000	5.579987
392.000000	5.678169
391.000000	5.781420
390.000000	5.879971
389.000000	5.979910
388.000000	6.080491
387.000000	6.177797
386.000000	6.267990
385.000000	6.362380
384.000000	6.464324
383.000000	6.562431
382.000000	6.640039
381.000000	6.739193
380.000000	6.829732
379.000000	6.924841
378.000000	7.049402
377.000000	7.130545
376.000000	7.204141
375.000000	7.274494
374.000000	7.337916
373.000000	7.456155
372.000000	7.527517
371.000000	7.580286
370.000000	7.661029
369.000000	7.712580
368.000000	7.787541
367.000000	7.874875
366.000000	7.927663
365.000000	7.998818
364.000000	8.036288
363.000000	8.053819
362.000000	8.086986
361.000000	8.139723
360.000000	8.181405
359.000000	8.205513
358.000000	8.248304
357.000000	8.274638
356.000000	8.290418
355.000000	8.322079
354.000000	8.341078
353.000000	8.354566
352.000000	8.356769
351.000000	8.345234
350.000000	8.337161
