PE UV       SUBTECH     SPECTRUM    ASCII       PEDS        4.00        
   -1
180706-5 bot.Sample.asc
18/07/06
14:21:46.00
18/07/06
14:21:46.00
Analyst
34s3fmt
350.000000
1
Lambda 950
950L1201053
PerkinElmer UV WinLab 6.0.4.0738 / 1.61.00 Lambda 900

0
0
3350/16 889.8/4
0
0
VIS
1
1
1
CommonBeamDepol,RBeamAtt,SBeamAtt,universal reflectance
0
0
0
0
Program
 
0
3350/0.28 889.8/0.28
0
0
0
 
 
 
0
 
889.8
150
889.8
Front
31
on
3350/S:100 3350/R:100
 
0
0
0
 
0
 
 
 
0
 
 
0
0
8.0
4.00
4.00
False
False
202L1112213
 
0
0


0
0
#HDR
-1
-1
#GR
nm
%R
1.0
0.0
880.000000
-1.000000
531
8
8.337272
1.198451
#DATA
880.000000	4.984219
879.000000	5.001793
878.000000	5.010563
877.000000	5.029609
876.000000	5.044184
875.000000	5.060021
874.000000	5.076027
873.000000	5.087268
872.000000	5.103569
871.000000	5.121718
870.000000	5.134075
869.000000	5.153205
868.000000	5.160212
867.000000	5.181125
866.000000	5.192396
865.000000	5.212204
864.000000	5.223549
863.000000	5.241472
862.000000	5.250436
861.000000	5.274935
860.000000	5.288508
859.000000	5.305424
858.000000	5.318225
857.000000	5.331626
856.000000	5.345383
855.000000	5.363749
854.000000	5.373923
853.000000	5.390503
852.000000	5.414092
851.000000	5.417711
850.000000	5.435519
849.000000	5.453650
848.000000	5.466228
847.000000	5.480177
846.000000	5.500257
845.000000	5.505698
844.000000	5.522231
843.000000	5.540683
842.000000	5.543837
841.000000	5.574363
840.000000	5.592920
839.000000	5.598715
838.000000	5.618411
837.000000	5.635055
836.000000	5.650337
835.000000	5.666202
834.000000	5.674838
833.000000	5.691143
832.000000	5.705647
831.000000	5.723708
830.000000	5.738769
829.000000	5.751470
828.000000	5.768961
827.000000	5.781045
826.000000	5.795639
825.000000	5.809973
824.000000	5.824013
823.000000	5.845629
822.000000	5.851377
821.000000	5.867959
820.000000	5.873919
819.000000	5.895858
818.000000	5.906985
817.000000	5.924388
816.000000	5.945318
815.000000	5.952920
814.000000	5.960727
813.000000	5.980181
812.000000	5.994614
811.000000	6.017473
810.000000	6.021578
809.000000	6.038601
808.000000	6.045186
807.000000	6.058654
806.000000	6.077851
805.000000	6.089402
804.000000	6.101203
803.000000	6.116043
802.000000	6.133066
801.000000	6.144840
800.000000	6.154706
799.000000	6.178118
798.000000	6.186597
797.000000	6.203268
796.000000	6.212529
795.000000	6.224969
794.000000	6.236781
793.000000	6.255305
792.000000	6.265219
791.000000	6.286673
790.000000	6.287941
789.000000	6.304485
788.000000	6.311445
787.000000	6.328421
786.000000	6.349288
785.000000	6.360034
784.000000	6.370040
783.000000	6.370712
782.000000	6.393784
781.000000	6.399986
780.000000	6.412033
779.000000	6.425372
778.000000	6.436071
777.000000	6.447930
776.000000	6.463782
775.000000	6.472714
774.000000	6.487664
773.000000	6.493704
772.000000	6.506623
771.000000	6.519599
770.000000	6.533721
769.000000	6.540185
768.000000	6.553588
767.000000	6.564303
766.000000	6.575575
765.000000	6.584549
764.000000	6.595747
763.000000	6.601015
762.000000	6.613554
761.000000	6.630665
760.000000	6.634668
759.000000	6.642432
758.000000	6.655317
757.000000	6.670015
756.000000	6.681883
755.000000	6.692207
754.000000	6.698699
753.000000	6.705816
752.000000	6.710098
751.000000	6.726880
750.000000	6.734985
749.000000	6.744687
748.000000	6.749863
747.000000	6.757958
746.000000	6.768247
745.000000	6.774414
744.000000	6.780151
743.000000	6.798325
742.000000	6.799856
741.000000	6.805627
740.000000	6.813111
739.000000	6.819160
738.000000	6.825985
737.000000	6.834462
736.000000	6.850344
735.000000	6.852425
734.000000	6.858287
733.000000	6.859225
732.000000	6.873412
731.000000	6.877137
730.000000	6.879653
729.000000	6.884831
728.000000	6.893851
727.000000	6.897693
726.000000	6.904330
725.000000	6.908963
724.000000	6.915424
723.000000	6.922391
722.000000	6.926327
721.000000	6.931094
720.000000	6.933894
719.000000	6.936486
718.000000	6.938912
717.000000	6.941332
716.000000	6.948929
715.000000	6.948065
714.000000	6.954564
713.000000	6.957738
712.000000	6.957237
711.000000	6.960939
710.000000	6.964654
709.000000	6.965599
708.000000	6.967991
707.000000	6.974293
706.000000	6.974034
705.000000	6.975067
704.000000	6.973136
703.000000	6.973160
702.000000	6.974182
701.000000	6.982512
700.000000	6.976688
699.000000	6.975685
698.000000	6.976370
697.000000	6.974655
696.000000	6.975018
695.000000	6.976686
694.000000	6.975399
693.000000	6.973751
692.000000	6.971408
691.000000	6.967904
690.000000	6.964564
689.000000	6.962162
688.000000	6.961898
687.000000	6.957522
686.000000	6.956850
685.000000	6.948293
684.000000	6.947947
683.000000	6.944820
682.000000	6.939373
681.000000	6.933286
680.000000	6.930529
679.000000	6.927922
678.000000	6.919651
677.000000	6.914777
676.000000	6.911588
675.000000	6.903772
674.000000	6.894538
673.000000	6.891345
672.000000	6.885386
671.000000	6.876288
670.000000	6.866527
669.000000	6.858275
668.000000	6.853606
667.000000	6.846089
666.000000	6.835879
665.000000	6.830019
664.000000	6.815311
663.000000	6.807979
662.000000	6.798804
661.000000	6.788271
660.000000	6.778017
659.000000	6.764863
658.000000	6.756354
657.000000	6.746528
656.000000	6.736443
655.000000	6.725863
654.000000	6.715237
653.000000	6.695910
652.000000	6.687291
651.000000	6.676232
650.000000	6.661674
649.000000	6.646944
648.000000	6.633916
647.000000	6.618144
646.000000	6.606589
645.000000	6.590554
644.000000	6.570707
643.000000	6.555458
642.000000	6.543682
641.000000	6.526814
640.000000	6.508719
639.000000	6.492747
638.000000	6.473669
637.000000	6.456622
636.000000	6.437371
635.000000	6.420430
634.000000	6.402252
633.000000	6.383838
632.000000	6.365238
631.000000	6.342342
630.000000	6.323466
629.000000	6.304677
628.000000	6.281971
627.000000	6.262803
626.000000	6.240527
625.000000	6.218777
624.000000	6.200035
623.000000	6.176927
622.000000	6.153119
621.000000	6.129027
620.000000	6.106996
619.000000	6.082956
618.000000	6.057719
617.000000	6.035118
616.000000	6.011732
615.000000	5.984992
614.000000	5.958745
613.000000	5.932872
612.000000	5.908529
611.000000	5.880819
610.000000	5.853660
609.000000	5.827472
608.000000	5.797322
607.000000	5.769654
606.000000	5.743231
605.000000	5.715151
604.000000	5.685806
603.000000	5.653638
602.000000	5.623277
601.000000	5.594586
600.000000	5.565936
599.000000	5.536120
598.000000	5.503245
597.000000	5.471783
596.000000	5.438259
595.000000	5.407163
594.000000	5.375136
593.000000	5.343556
592.000000	5.310951
591.000000	5.276926
590.000000	5.243056
589.000000	5.209555
588.000000	5.175855
587.000000	5.141522
586.000000	5.106406
585.000000	5.069670
584.000000	5.035069
583.000000	4.999461
582.000000	4.963000
581.000000	4.925947
580.000000	4.889149
579.000000	4.853082
578.000000	4.813412
577.000000	4.775014
576.000000	4.737772
575.000000	4.702983
574.000000	4.665593
573.000000	4.624124
572.000000	4.584839
571.000000	4.544471
570.000000	4.504530
569.000000	4.467546
568.000000	4.427352
567.000000	4.385560
566.000000	4.345861
565.000000	4.304678
564.000000	4.267530
563.000000	4.226691
562.000000	4.182553
561.000000	4.140217
560.000000	4.096157
559.000000	4.054056
558.000000	4.013211
557.000000	3.970354
556.000000	3.926317
555.000000	3.884849
554.000000	3.843713
553.000000	3.802237
552.000000	3.759311
551.000000	3.716868
550.000000	3.673703
549.000000	3.628745
548.000000	3.584326
547.000000	3.541922
546.000000	3.497384
545.000000	3.452916
544.000000	3.410243
543.000000	3.367036
542.000000	3.321991
541.000000	3.278551
540.000000	3.236090
539.000000	3.191637
538.000000	3.147022
537.000000	3.103334
536.000000	3.059896
535.000000	3.016889
534.000000	2.972952
533.000000	2.930363
532.000000	2.887064
531.000000	2.842847
530.000000	2.800000
529.000000	2.756775
528.000000	2.712911
527.000000	2.670273
526.000000	2.629521
525.000000	2.588194
524.000000	2.545740
523.000000	2.504603
522.000000	2.462884
521.000000	2.421166
520.000000	2.380507
519.000000	2.340098
518.000000	2.300643
517.000000	2.261234
516.000000	2.222995
515.000000	2.184153
514.000000	2.144304
513.000000	2.107211
512.000000	2.070851
511.000000	2.033664
510.000000	1.997369
509.000000	1.961536
508.000000	1.927252
507.000000	1.894033
506.000000	1.860531
505.000000	1.827721
504.000000	1.795417
503.000000	1.764256
502.000000	1.733038
501.000000	1.702831
500.000000	1.672512
499.000000	1.642216
498.000000	1.614591
497.000000	1.585061
496.000000	1.557482
495.000000	1.531225
494.000000	1.503977
493.000000	1.479342
492.000000	1.455051
491.000000	1.431254
490.000000	1.409517
489.000000	1.386553
488.000000	1.365062
487.000000	1.345852
486.000000	1.326856
485.000000	1.308351
484.000000	1.293275
483.000000	1.279101
482.000000	1.265129
481.000000	1.253034
480.000000	1.241793
479.000000	1.230799
478.000000	1.222426
477.000000	1.215454
476.000000	1.209989
475.000000	1.206050
474.000000	1.201348
473.000000	1.199404
472.000000	1.198874
471.000000	1.198451
470.000000	1.199994
469.000000	1.204183
468.000000	1.209283
467.000000	1.216445
466.000000	1.224645
465.000000	1.232429
464.000000	1.241645
463.000000	1.254120
462.000000	1.267799
461.000000	1.282956
460.000000	1.300381
459.000000	1.318699
458.000000	1.339401
457.000000	1.360206
456.000000	1.383311
455.000000	1.407212
454.000000	1.433679
453.000000	1.462639
452.000000	1.494465
451.000000	1.526385
450.000000	1.560006
449.000000	1.596995
448.000000	1.635048
447.000000	1.673593
446.000000	1.715583
445.000000	1.758526
444.000000	1.805574
443.000000	1.850598
442.000000	1.900176
441.000000	1.950543
440.000000	2.000488
439.000000	2.054614
438.000000	2.109186
437.000000	2.164003
436.000000	2.221216
435.000000	2.280185
434.000000	2.340225
433.000000	2.404945
432.000000	2.472670
431.000000	2.538988
430.000000	2.605070
429.000000	2.676191
428.000000	2.750381
427.000000	2.821094
426.000000	2.894149
425.000000	2.970535
424.000000	3.045097
423.000000	3.123758
422.000000	3.205046
421.000000	3.291045
420.000000	3.373020
419.000000	3.460744
418.000000	3.543703
417.000000	3.630882
416.000000	3.719548
415.000000	3.803830
414.000000	3.894943
413.000000	3.980709
412.000000	4.073724
411.000000	4.167738
410.000000	4.260539
409.000000	4.360146
408.000000	4.454317
407.000000	4.551606
406.000000	4.648822
405.000000	4.738831
404.000000	4.831961
403.000000	4.930778
402.000000	5.034963
401.000000	5.131590
400.000000	5.227774
399.000000	5.328751
398.000000	5.432352
397.000000	5.538108
396.000000	5.627329
395.000000	5.726939
394.000000	5.820983
393.000000	5.921916
392.000000	6.016057
391.000000	6.118070
390.000000	6.205970
389.000000	6.306335
388.000000	6.403583
387.000000	6.503537
386.000000	6.584275
385.000000	6.671426
384.000000	6.767944
383.000000	6.861528
382.000000	6.941658
381.000000	7.027874
380.000000	7.105194
379.000000	7.187134
378.000000	7.320373
377.000000	7.396601
376.000000	7.450898
375.000000	7.513087
374.000000	7.583563
373.000000	7.670973
372.000000	7.718154
371.000000	7.758219
370.000000	7.839365
369.000000	7.898642
368.000000	7.956152
367.000000	8.039599
366.000000	8.081981
365.000000	8.136559
364.000000	8.145084
363.000000	8.185343
362.000000	8.197728
361.000000	8.230331
360.000000	8.253813
359.000000	8.267360
358.000000	8.285933
357.000000	8.322201
356.000000	8.319155
355.000000	8.322142
354.000000	8.332906
353.000000	8.337272
352.000000	8.318613
351.000000	8.294566
350.000000	8.273148
