PE UV       SUBTECH     SPECTRUM    ASCII       PEDS        4.00        
   -1
180706-6.Sample.asc
18/07/06
16:03:48.00
18/07/06
16:03:48.00
Analyst
34s15fmt test
350.000000
1
Lambda 950
950L1201053
PerkinElmer UV WinLab 6.0.4.0738 / 1.61.00 Lambda 900

0
0
3350/16 889.8/4
0
0
VIS
1
1
1
CommonBeamDepol,RBeamAtt,SBeamAtt,universal reflectance
0
0
0
0
Program
 
0
3350/0.28 889.8/0.28
0
0
0
 
 
 
0
 
889.8
150
889.8
Front
31
on
3350/S:100 3350/R:100
 
0
0
0
 
0
 
 
 
0
 
 
0
0
8.0
4.00
4.00
False
False
202L1112213
 
0
0


0
0
#HDR
-1
-1
#GR
nm
%R
1.0
0.0
880.000000
-1.000000
531
8
8.296988
1.200282
#DATA
880.000000	5.214858
879.000000	5.229204
878.000000	5.248459
877.000000	5.258780
876.000000	5.274560
875.000000	5.291221
874.000000	5.300287
873.000000	5.320896
872.000000	5.338832
871.000000	5.353962
870.000000	5.366915
869.000000	5.381229
868.000000	5.392570
867.000000	5.408082
866.000000	5.427029
865.000000	5.441530
864.000000	5.458090
863.000000	5.465223
862.000000	5.484217
861.000000	5.502586
860.000000	5.515024
859.000000	5.529622
858.000000	5.545216
857.000000	5.558580
856.000000	5.570031
855.000000	5.584316
854.000000	5.611293
853.000000	5.613919
852.000000	5.641537
851.000000	5.642252
850.000000	5.665808
849.000000	5.677031
848.000000	5.689342
847.000000	5.704222
846.000000	5.722335
845.000000	5.734292
844.000000	5.747400
843.000000	5.766640
842.000000	5.774868
841.000000	5.797609
840.000000	5.809130
839.000000	5.830205
838.000000	5.841209
837.000000	5.853388
836.000000	5.864320
835.000000	5.880836
834.000000	5.892655
833.000000	5.906248
832.000000	5.920309
831.000000	5.939426
830.000000	5.954487
829.000000	5.964215
828.000000	5.980116
827.000000	5.987245
826.000000	6.006506
825.000000	6.017792
824.000000	6.032221
823.000000	6.046438
822.000000	6.066516
821.000000	6.076602
820.000000	6.094316
819.000000	6.108003
818.000000	6.122995
817.000000	6.129183
816.000000	6.144487
815.000000	6.152732
814.000000	6.169080
813.000000	6.176631
812.000000	6.203145
811.000000	6.204255
810.000000	6.225332
809.000000	6.233684
808.000000	6.237959
807.000000	6.255011
806.000000	6.266416
805.000000	6.287108
804.000000	6.298033
803.000000	6.309866
802.000000	6.320078
801.000000	6.337987
800.000000	6.346349
799.000000	6.357277
798.000000	6.368645
797.000000	6.372401
796.000000	6.402688
795.000000	6.412630
794.000000	6.420112
793.000000	6.423329
792.000000	6.443206
791.000000	6.454808
790.000000	6.463525
789.000000	6.474572
788.000000	6.488987
787.000000	6.498631
786.000000	6.513089
785.000000	6.520264
784.000000	6.535683
783.000000	6.541685
782.000000	6.556119
781.000000	6.567453
780.000000	6.573950
779.000000	6.588045
778.000000	6.594006
777.000000	6.606296
776.000000	6.618705
775.000000	6.624390
774.000000	6.632689
773.000000	6.642279
772.000000	6.655851
771.000000	6.673812
770.000000	6.681189
769.000000	6.684804
768.000000	6.689686
767.000000	6.702354
766.000000	6.712029
765.000000	6.720995
764.000000	6.726706
763.000000	6.732795
762.000000	6.748051
761.000000	6.755540
760.000000	6.764230
759.000000	6.774187
758.000000	6.778990
757.000000	6.787673
756.000000	6.796982
755.000000	6.807364
754.000000	6.811200
753.000000	6.813995
752.000000	6.825681
751.000000	6.829870
750.000000	6.839025
749.000000	6.849018
748.000000	6.854065
747.000000	6.855006
746.000000	6.863981
745.000000	6.867999
744.000000	6.876719
743.000000	6.883356
742.000000	6.889044
741.000000	6.893312
740.000000	6.901441
739.000000	6.903887
738.000000	6.910722
737.000000	6.914584
736.000000	6.918135
735.000000	6.923425
734.000000	6.927764
733.000000	6.934647
732.000000	6.935713
731.000000	6.944402
730.000000	6.947478
729.000000	6.952443
728.000000	6.948914
727.000000	6.957343
726.000000	6.959859
725.000000	6.958438
724.000000	6.963361
723.000000	6.967446
722.000000	6.967995
721.000000	6.972895
720.000000	6.973538
719.000000	6.975102
718.000000	6.975540
717.000000	6.973451
716.000000	6.978774
715.000000	6.982016
714.000000	6.982560
713.000000	6.983244
712.000000	6.982716
711.000000	6.977094
710.000000	6.979925
709.000000	6.978438
708.000000	6.976017
707.000000	6.978771
706.000000	6.973750
705.000000	6.971659
704.000000	6.973141
703.000000	6.970068
702.000000	6.966378
701.000000	6.965486
700.000000	6.961569
699.000000	6.962548
698.000000	6.960140
697.000000	6.958125
696.000000	6.953838
695.000000	6.950969
694.000000	6.943206
693.000000	6.939330
692.000000	6.934073
691.000000	6.927409
690.000000	6.919299
689.000000	6.915643
688.000000	6.909531
687.000000	6.902890
686.000000	6.896345
685.000000	6.892186
684.000000	6.888585
683.000000	6.880715
682.000000	6.875339
681.000000	6.864935
680.000000	6.857108
679.000000	6.849333
678.000000	6.839141
677.000000	6.830652
676.000000	6.823969
675.000000	6.815718
674.000000	6.806362
673.000000	6.795290
672.000000	6.786043
671.000000	6.775675
670.000000	6.765651
669.000000	6.755111
668.000000	6.741351
667.000000	6.730655
666.000000	6.721160
665.000000	6.708734
664.000000	6.695410
663.000000	6.682040
662.000000	6.668760
661.000000	6.656533
660.000000	6.640649
659.000000	6.625743
658.000000	6.612114
657.000000	6.600555
656.000000	6.587326
655.000000	6.572646
654.000000	6.554793
653.000000	6.538036
652.000000	6.519935
651.000000	6.508661
650.000000	6.491393
649.000000	6.472057
648.000000	6.454314
647.000000	6.437820
646.000000	6.419216
645.000000	6.401948
644.000000	6.385112
643.000000	6.364237
642.000000	6.344122
641.000000	6.326665
640.000000	6.306600
639.000000	6.286343
638.000000	6.265554
637.000000	6.243543
636.000000	6.223920
635.000000	6.200629
634.000000	6.176760
633.000000	6.155969
632.000000	6.135496
631.000000	6.113160
630.000000	6.089236
629.000000	6.063215
628.000000	6.040242
627.000000	6.016419
626.000000	5.992596
625.000000	5.966536
624.000000	5.939400
623.000000	5.916993
622.000000	5.890112
621.000000	5.861965
620.000000	5.836576
619.000000	5.810475
618.000000	5.783705
617.000000	5.756252
616.000000	5.727742
615.000000	5.698019
614.000000	5.671560
613.000000	5.644506
612.000000	5.612875
611.000000	5.580528
610.000000	5.550448
609.000000	5.522274
608.000000	5.490988
607.000000	5.458822
606.000000	5.427285
605.000000	5.396106
604.000000	5.364232
603.000000	5.333548
602.000000	5.302266
601.000000	5.270018
600.000000	5.235670
599.000000	5.201813
598.000000	5.166848
597.000000	5.132612
596.000000	5.099329
595.000000	5.062061
594.000000	5.027860
593.000000	4.994228
592.000000	4.958230
591.000000	4.922975
590.000000	4.887760
589.000000	4.851384
588.000000	4.813404
587.000000	4.775075
586.000000	4.736222
585.000000	4.700198
584.000000	4.664643
583.000000	4.625304
582.000000	4.587290
581.000000	4.548667
580.000000	4.508735
579.000000	4.468996
578.000000	4.427475
577.000000	4.387396
576.000000	4.350056
575.000000	4.312363
574.000000	4.272188
573.000000	4.231213
572.000000	4.189813
571.000000	4.151033
570.000000	4.111129
569.000000	4.068858
568.000000	4.026740
567.000000	3.986192
566.000000	3.943785
565.000000	3.903538
564.000000	3.864774
563.000000	3.823257
562.000000	3.778559
561.000000	3.732498
560.000000	3.687447
559.000000	3.645931
558.000000	3.604133
557.000000	3.560728
556.000000	3.519660
555.000000	3.477137
554.000000	3.433848
553.000000	3.390966
552.000000	3.347805
551.000000	3.304210
550.000000	3.261108
549.000000	3.219503
548.000000	3.176851
547.000000	3.133557
546.000000	3.091622
545.000000	3.049505
544.000000	3.007592
543.000000	2.965731
542.000000	2.922192
541.000000	2.878915
540.000000	2.837109
539.000000	2.794724
538.000000	2.752129
537.000000	2.709842
536.000000	2.668598
535.000000	2.627399
534.000000	2.586169
533.000000	2.546086
532.000000	2.505721
531.000000	2.463946
530.000000	2.422693
529.000000	2.382576
528.000000	2.342709
527.000000	2.304085
526.000000	2.264990
525.000000	2.226200
524.000000	2.189213
523.000000	2.151823
522.000000	2.113649
521.000000	2.076348
520.000000	2.039344
519.000000	2.003157
518.000000	1.968208
517.000000	1.933459
516.000000	1.898947
515.000000	1.865601
514.000000	1.833563
513.000000	1.801148
512.000000	1.768798
511.000000	1.738095
510.000000	1.707649
509.000000	1.677930
508.000000	1.648957
507.000000	1.621225
506.000000	1.594939
505.000000	1.568290
504.000000	1.542543
503.000000	1.518001
502.000000	1.493966
501.000000	1.470407
500.000000	1.446805
499.000000	1.424564
498.000000	1.403739
497.000000	1.383695
496.000000	1.363306
495.000000	1.344738
494.000000	1.327968
493.000000	1.311586
492.000000	1.295532
491.000000	1.280439
490.000000	1.266260
489.000000	1.253721
488.000000	1.241716
487.000000	1.233599
486.000000	1.225036
485.000000	1.217003
484.000000	1.209772
483.000000	1.205141
482.000000	1.203923
481.000000	1.203166
480.000000	1.200282
479.000000	1.200562
478.000000	1.203234
477.000000	1.207318
476.000000	1.211692
475.000000	1.217913
474.000000	1.225192
473.000000	1.234054
472.000000	1.244466
471.000000	1.257006
470.000000	1.271677
469.000000	1.285787
468.000000	1.302152
467.000000	1.319866
466.000000	1.339191
465.000000	1.360474
464.000000	1.383056
463.000000	1.405810
462.000000	1.429902
461.000000	1.457921
460.000000	1.487803
459.000000	1.518684
458.000000	1.550833
457.000000	1.583058
456.000000	1.618035
455.000000	1.655642
454.000000	1.694194
453.000000	1.735715
452.000000	1.778523
451.000000	1.820608
450.000000	1.866441
449.000000	1.919220
448.000000	1.966421
447.000000	2.017314
446.000000	2.071502
445.000000	2.126078
444.000000	2.181607
443.000000	2.241538
442.000000	2.299009
441.000000	2.358845
440.000000	2.422950
439.000000	2.488975
438.000000	2.552799
437.000000	2.620518
436.000000	2.691728
435.000000	2.759945
434.000000	2.829344
433.000000	2.903374
432.000000	2.977855
431.000000	3.051631
430.000000	3.128158
429.000000	3.208850
428.000000	3.290354
427.000000	3.368669
426.000000	3.455987
425.000000	3.535797
424.000000	3.619439
423.000000	3.703481
422.000000	3.788487
421.000000	3.877073
420.000000	3.968012
419.000000	4.062784
418.000000	4.155296
417.000000	4.244957
416.000000	4.336166
415.000000	4.429965
414.000000	4.519244
413.000000	4.615036
412.000000	4.710856
411.000000	4.805743
410.000000	4.899155
409.000000	4.998204
408.000000	5.093636
407.000000	5.188530
406.000000	5.286800
405.000000	5.385175
404.000000	5.471230
403.000000	5.570672
402.000000	5.667397
401.000000	5.763960
400.000000	5.855220
399.000000	5.952630
398.000000	6.048505
397.000000	6.143268
396.000000	6.233705
395.000000	6.325564
394.000000	6.416625
393.000000	6.509412
392.000000	6.604864
391.000000	6.691360
390.000000	6.774890
389.000000	6.851112
388.000000	6.945027
387.000000	7.026365
386.000000	7.108580
385.000000	7.183820
384.000000	7.263004
383.000000	7.339841
382.000000	7.417930
381.000000	7.473381
380.000000	7.552890
379.000000	7.629090
378.000000	7.710313
377.000000	7.742700
376.000000	7.796682
375.000000	7.878560
374.000000	7.907189
373.000000	7.995500
372.000000	8.035619
371.000000	8.062207
370.000000	8.099529
369.000000	8.152444
368.000000	8.175686
367.000000	8.210693
366.000000	8.246872
365.000000	8.265314
364.000000	8.285522
363.000000	8.276981
362.000000	8.296988
361.000000	8.294642
360.000000	8.285674
359.000000	8.287686
358.000000	8.278893
357.000000	8.256135
356.000000	8.230292
355.000000	8.217699
354.000000	8.185961
353.000000	8.158538
352.000000	8.135588
351.000000	8.080686
350.000000	8.032409
