PE UV       SUBTECH     SPECTRUM    ASCII       PEDS        4.00        
   -1
180627-9 middle alpha.Sample.asc
18/06/27
23:33:40.00
18/06/27
23:33:40.00
Analyst
34s15gmt test
350.000000
1
Lambda 950
950L1201053
PerkinElmer UV WinLab 6.0.4.0738 / 1.61.00 Lambda 900

0
0
3350/16 889.8/4
0
0
VIS
1
1
1
CommonBeamDepol,RBeamAtt,SBeamAtt,universal reflectance
0
0
0
0
Program
 
0
3350/0.28 889.8/0.28
0
0
0
 
 
 
0
 
889.8
150
889.8
Front
31
on
3350/S:100 3350/R:100
 
0
0
0
 
0
 
 
 
0
 
 
0
0
8.0
4.00
4.00
False
False
202L1112213
 
0
0


0
0
#HDR
-1
-1
#GR
nm
%R
1.0
0.0
880.000000
-1.000000
531
8
38.383839
4.679363
#DATA
880.000000	19.607256
879.000000	19.543200
878.000000	19.453120
877.000000	19.417662
876.000000	19.339536
875.000000	19.277495
874.000000	19.202486
873.000000	19.131053
872.000000	19.059462
871.000000	18.987369
870.000000	18.929777
869.000000	18.858692
868.000000	18.778014
867.000000	18.713339
866.000000	18.627889
865.000000	18.564679
864.000000	18.484804
863.000000	18.408907
862.000000	18.356855
861.000000	18.279337
860.000000	18.202049
859.000000	18.124279
858.000000	18.051655
857.000000	17.983242
856.000000	17.918043
855.000000	17.827024
854.000000	17.773588
853.000000	17.675808
852.000000	17.600560
851.000000	17.525055
850.000000	17.454607
849.000000	17.366819
848.000000	17.302021
847.000000	17.213419
846.000000	17.146852
845.000000	17.071132
844.000000	17.000783
843.000000	16.913217
842.000000	16.825823
841.000000	16.751672
840.000000	16.670907
839.000000	16.582562
838.000000	16.505387
837.000000	16.436234
836.000000	16.350957
835.000000	16.281056
834.000000	16.204646
833.000000	16.110203
832.000000	16.041213
831.000000	15.954709
830.000000	15.869259
829.000000	15.786453
828.000000	15.692450
827.000000	15.622281
826.000000	15.545425
825.000000	15.456208
824.000000	15.377452
823.000000	15.301876
822.000000	15.214265
821.000000	15.115348
820.000000	15.040636
819.000000	14.951263
818.000000	14.859078
817.000000	14.785449
816.000000	14.690901
815.000000	14.612157
814.000000	14.529634
813.000000	14.456579
812.000000	14.365785
811.000000	14.271437
810.000000	14.189070
809.000000	14.103712
808.000000	14.013618
807.000000	13.932262
806.000000	13.846290
805.000000	13.756653
804.000000	13.664106
803.000000	13.575582
802.000000	13.498048
801.000000	13.407510
800.000000	13.323216
799.000000	13.239583
798.000000	13.144419
797.000000	13.054509
796.000000	12.970840
795.000000	12.880598
794.000000	12.786764
793.000000	12.704563
792.000000	12.617491
791.000000	12.522491
790.000000	12.426822
789.000000	12.329981
788.000000	12.254624
787.000000	12.166365
786.000000	12.075086
785.000000	11.977848
784.000000	11.885349
783.000000	11.798233
782.000000	11.718457
781.000000	11.624720
780.000000	11.540597
779.000000	11.443777
778.000000	11.354109
777.000000	11.273810
776.000000	11.185918
775.000000	11.086856
774.000000	10.992342
773.000000	10.915280
772.000000	10.826106
771.000000	10.732223
770.000000	10.643949
769.000000	10.550680
768.000000	10.465842
767.000000	10.380631
766.000000	10.286938
765.000000	10.197890
764.000000	10.115669
763.000000	10.027333
762.000000	9.931570
761.000000	9.848130
760.000000	9.758264
759.000000	9.666600
758.000000	9.586228
757.000000	9.497240
756.000000	9.414884
755.000000	9.324526
754.000000	9.233635
753.000000	9.148886
752.000000	9.068725
751.000000	8.980858
750.000000	8.893741
749.000000	8.808575
748.000000	8.730600
747.000000	8.641273
746.000000	8.560011
745.000000	8.477073
744.000000	8.392249
743.000000	8.309216
742.000000	8.226334
741.000000	8.145621
740.000000	8.069717
739.000000	7.984094
738.000000	7.902232
737.000000	7.820147
736.000000	7.744125
735.000000	7.665215
734.000000	7.589379
733.000000	7.511227
732.000000	7.438395
731.000000	7.358517
730.000000	7.280516
729.000000	7.206110
728.000000	7.130354
727.000000	7.062065
726.000000	6.988176
725.000000	6.914842
724.000000	6.843142
723.000000	6.772269
722.000000	6.704664
721.000000	6.633993
720.000000	6.563363
719.000000	6.498551
718.000000	6.429429
717.000000	6.362254
716.000000	6.296332
715.000000	6.238274
714.000000	6.175171
713.000000	6.113318
712.000000	6.051391
711.000000	5.992231
710.000000	5.933651
709.000000	5.874733
708.000000	5.816806
707.000000	5.760185
706.000000	5.708319
705.000000	5.655788
704.000000	5.603656
703.000000	5.550972
702.000000	5.501529
701.000000	5.451390
700.000000	5.405143
699.000000	5.354781
698.000000	5.308220
697.000000	5.267744
696.000000	5.224822
695.000000	5.185108
694.000000	5.148016
693.000000	5.112242
692.000000	5.073970
691.000000	5.033465
690.000000	5.002600
689.000000	4.967280
688.000000	4.936862
687.000000	4.912414
686.000000	4.885721
685.000000	4.856290
684.000000	4.831688
683.000000	4.810691
682.000000	4.789118
681.000000	4.769206
680.000000	4.751799
679.000000	4.735512
678.000000	4.725617
677.000000	4.712313
676.000000	4.700242
675.000000	4.693778
674.000000	4.688753
673.000000	4.681859
672.000000	4.679841
671.000000	4.679363
670.000000	4.681778
669.000000	4.685379
668.000000	4.690483
667.000000	4.698594
666.000000	4.708744
665.000000	4.721140
664.000000	4.732228
663.000000	4.747670
662.000000	4.769537
661.000000	4.788952
660.000000	4.811589
659.000000	4.835967
658.000000	4.864892
657.000000	4.894828
656.000000	4.927106
655.000000	4.962328
654.000000	4.996007
653.000000	5.035159
652.000000	5.074299
651.000000	5.115721
650.000000	5.165878
649.000000	5.214022
648.000000	5.263907
647.000000	5.317558
646.000000	5.371304
645.000000	5.429500
644.000000	5.487947
643.000000	5.551801
642.000000	5.618603
641.000000	5.686593
640.000000	5.757759
639.000000	5.828685
638.000000	5.902597
637.000000	5.984987
636.000000	6.065054
635.000000	6.147189
634.000000	6.231220
633.000000	6.320213
632.000000	6.411472
631.000000	6.505957
630.000000	6.600532
629.000000	6.701469
628.000000	6.803231
627.000000	6.905993
626.000000	7.012049
625.000000	7.123158
624.000000	7.232349
623.000000	7.347926
622.000000	7.466127
621.000000	7.583180
620.000000	7.711456
619.000000	7.838812
618.000000	7.963151
617.000000	8.095535
616.000000	8.228410
615.000000	8.360541
614.000000	8.496961
613.000000	8.635664
612.000000	8.783202
611.000000	8.934073
610.000000	9.082014
609.000000	9.232594
608.000000	9.387889
607.000000	9.542410
606.000000	9.697290
605.000000	9.855657
604.000000	10.022822
603.000000	10.187028
602.000000	10.354500
601.000000	10.528580
600.000000	10.704818
599.000000	10.878851
598.000000	11.059286
597.000000	11.235164
596.000000	11.417572
595.000000	11.601702
594.000000	11.782115
593.000000	11.968820
592.000000	12.160931
591.000000	12.359920
590.000000	12.559913
589.000000	12.759620
588.000000	12.956757
587.000000	13.155548
586.000000	13.354765
585.000000	13.560366
584.000000	13.766560
583.000000	13.974110
582.000000	14.186344
581.000000	14.400590
580.000000	14.611367
579.000000	14.831766
578.000000	15.056532
577.000000	15.272901
576.000000	15.484529
575.000000	15.704747
574.000000	15.922186
573.000000	16.146393
572.000000	16.377251
571.000000	16.604989
570.000000	16.835430
569.000000	17.066620
568.000000	17.297458
567.000000	17.530364
566.000000	17.752392
565.000000	17.980448
564.000000	18.224591
563.000000	18.458041
562.000000	18.691746
561.000000	18.938837
560.000000	19.195622
559.000000	19.436471
558.000000	19.670556
557.000000	19.911700
556.000000	20.154251
555.000000	20.393743
554.000000	20.632441
553.000000	20.872415
552.000000	21.109987
551.000000	21.353723
550.000000	21.601454
549.000000	21.846880
548.000000	22.088505
547.000000	22.330110
546.000000	22.576871
545.000000	22.814585
544.000000	23.041752
543.000000	23.282423
542.000000	23.524477
541.000000	23.769383
540.000000	24.015786
539.000000	24.247389
538.000000	24.487320
537.000000	24.731152
536.000000	24.962270
535.000000	25.193768
534.000000	25.431783
533.000000	25.667103
532.000000	25.905332
531.000000	26.145639
530.000000	26.375011
529.000000	26.600714
528.000000	26.835702
527.000000	27.061848
526.000000	27.286558
525.000000	27.511578
524.000000	27.733282
523.000000	27.958257
522.000000	28.170351
521.000000	28.383055
520.000000	28.609258
519.000000	28.823140
518.000000	29.030065
517.000000	29.236118
516.000000	29.443240
515.000000	29.651635
514.000000	29.848840
513.000000	30.047464
512.000000	30.246058
511.000000	30.436786
510.000000	30.629544
509.000000	30.820356
508.000000	30.991978
507.000000	31.162571
506.000000	31.343429
505.000000	31.519048
504.000000	31.696243
503.000000	31.870887
502.000000	32.027725
501.000000	32.183392
500.000000	32.341745
499.000000	32.487951
498.000000	32.637970
497.000000	32.799293
496.000000	32.960448
495.000000	33.107942
494.000000	33.251901
493.000000	33.388023
492.000000	33.536755
491.000000	33.672027
490.000000	33.808566
489.000000	33.941629
488.000000	34.049907
487.000000	34.161172
486.000000	34.277253
485.000000	34.383433
484.000000	34.497274
483.000000	34.594144
482.000000	34.678180
481.000000	34.768875
480.000000	34.857831
479.000000	34.937869
478.000000	34.993849
477.000000	35.051258
476.000000	35.103066
475.000000	35.153987
474.000000	35.198886
473.000000	35.231559
472.000000	35.256396
471.000000	35.272285
470.000000	35.303581
469.000000	35.323525
468.000000	35.324343
467.000000	35.327994
466.000000	35.317779
465.000000	35.290746
464.000000	35.281328
463.000000	35.272326
462.000000	35.241397
461.000000	35.184730
460.000000	35.124303
459.000000	35.068184
458.000000	35.003497
457.000000	34.923613
456.000000	34.844961
455.000000	34.743491
454.000000	34.649023
453.000000	34.532788
452.000000	34.401342
451.000000	34.276933
450.000000	34.131472
449.000000	33.973476
448.000000	33.817378
447.000000	33.642664
446.000000	33.460377
445.000000	33.269420
444.000000	33.058061
443.000000	32.839859
442.000000	32.617941
441.000000	32.384779
440.000000	32.115332
439.000000	31.850677
438.000000	31.573437
437.000000	31.293485
436.000000	30.992260
435.000000	30.685948
434.000000	30.364190
433.000000	30.021226
432.000000	29.651161
431.000000	29.271046
430.000000	28.888675
429.000000	28.491709
428.000000	28.076416
427.000000	27.637087
426.000000	27.205920
425.000000	26.739411
424.000000	26.258160
423.000000	25.763746
422.000000	25.253924
421.000000	24.740798
420.000000	24.195641
419.000000	23.641344
418.000000	23.078392
417.000000	22.481659
416.000000	21.895422
415.000000	21.295640
414.000000	20.670881
413.000000	20.026113
412.000000	19.363714
411.000000	18.695600
410.000000	18.025056
409.000000	17.343962
408.000000	16.645602
407.000000	15.963942
406.000000	15.270093
405.000000	14.567900
404.000000	13.871089
403.000000	13.175585
402.000000	12.473504
401.000000	11.774444
400.000000	11.094112
399.000000	10.430889
398.000000	9.792729
397.000000	9.172534
396.000000	8.592910
395.000000	8.040955
394.000000	7.525486
393.000000	7.058120
392.000000	6.631163
391.000000	6.260098
390.000000	5.953614
389.000000	5.713933
388.000000	5.541999
387.000000	5.445283
386.000000	5.438180
385.000000	5.525286
384.000000	5.694541
383.000000	5.967642
382.000000	6.324191
381.000000	6.789673
380.000000	7.367242
379.000000	8.044104
378.000000	9.104503
377.000000	10.068476
376.000000	11.007765
375.000000	12.019871
374.000000	13.131755
373.000000	14.335070
372.000000	15.545901
371.000000	16.839047
370.000000	18.181171
369.000000	19.569524
368.000000	20.987259
367.000000	22.388581
366.000000	23.824096
365.000000	25.214676
364.000000	26.579274
363.000000	27.900247
362.000000	29.158543
361.000000	30.383181
360.000000	31.545532
359.000000	32.643096
358.000000	33.693094
357.000000	34.582643
356.000000	35.451227
355.000000	36.191717
354.000000	36.852614
353.000000	37.395322
352.000000	37.830869
351.000000	38.176064
350.000000	38.383839
