PE UV       SUBTECH     SPECTRUM    ASCII       PEDS        4.00        
   -1
180627-9 bottom omega.Sample.asc
18/06/27
23:51:07.00
18/06/27
23:51:07.00
Analyst
34s15gmt test
350.000000
1
Lambda 950
950L1201053
PerkinElmer UV WinLab 6.0.4.0738 / 1.61.00 Lambda 900

0
0
3350/16 889.8/4
0
0
VIS
1
1
1
CommonBeamDepol,RBeamAtt,SBeamAtt,universal reflectance
0
0
0
0
Program
 
0
3350/0.28 889.8/0.28
0
0
0
 
 
 
0
 
889.8
150
889.8
Front
31
on
3350/S:100 3350/R:100
 
0
0
0
 
0
 
 
 
0
 
 
0
0
8.0
4.00
4.00
False
False
202L1112213
 
0
0


0
0
#HDR
-1
-1
#GR
nm
%R
1.0
0.0
880.000000
-1.000000
531
8
38.786110
4.729802
#DATA
880.000000	19.006355
879.000000	18.936571
878.000000	18.868081
877.000000	18.802504
876.000000	18.730298
875.000000	18.658974
874.000000	18.585885
873.000000	18.525217
872.000000	18.444233
871.000000	18.384260
870.000000	18.311729
869.000000	18.242703
868.000000	18.169186
867.000000	18.102496
866.000000	18.011811
865.000000	17.951791
864.000000	17.865488
863.000000	17.805955
862.000000	17.738639
861.000000	17.663448
860.000000	17.584870
859.000000	17.506003
858.000000	17.441770
857.000000	17.357892
856.000000	17.283504
855.000000	17.210372
854.000000	17.135942
853.000000	17.053961
852.000000	16.980891
851.000000	16.907393
850.000000	16.830766
849.000000	16.741313
848.000000	16.675071
847.000000	16.585658
846.000000	16.515987
845.000000	16.441059
844.000000	16.370905
843.000000	16.267207
842.000000	16.195950
841.000000	16.116674
840.000000	16.035977
839.000000	15.948490
838.000000	15.872654
837.000000	15.793905
836.000000	15.716466
835.000000	15.632397
834.000000	15.557938
833.000000	15.462203
832.000000	15.393940
831.000000	15.311991
830.000000	15.227663
829.000000	15.150084
828.000000	15.057875
827.000000	14.983382
826.000000	14.894374
825.000000	14.808599
824.000000	14.724207
823.000000	14.650528
822.000000	14.558808
821.000000	14.464158
820.000000	14.385335
819.000000	14.303544
818.000000	14.217907
817.000000	14.138513
816.000000	14.049946
815.000000	13.954636
814.000000	13.876691
813.000000	13.796814
812.000000	13.711012
811.000000	13.622824
810.000000	13.536044
809.000000	13.451801
808.000000	13.358304
807.000000	13.273901
806.000000	13.191519
805.000000	13.105843
804.000000	13.017607
803.000000	12.922678
802.000000	12.843504
801.000000	12.749352
800.000000	12.672412
799.000000	12.575373
798.000000	12.488417
797.000000	12.397216
796.000000	12.307426
795.000000	12.218919
794.000000	12.128298
793.000000	12.047309
792.000000	11.965077
791.000000	11.870266
790.000000	11.775520
789.000000	11.690469
788.000000	11.610993
787.000000	11.522155
786.000000	11.427190
785.000000	11.339117
784.000000	11.250094
783.000000	11.162554
782.000000	11.081171
781.000000	10.998887
780.000000	10.905861
779.000000	10.814448
778.000000	10.724527
777.000000	10.642055
776.000000	10.554562
775.000000	10.468357
774.000000	10.375251
773.000000	10.291799
772.000000	10.210922
771.000000	10.117695
770.000000	10.036324
769.000000	9.940840
768.000000	9.862043
767.000000	9.777389
766.000000	9.689842
765.000000	9.600970
764.000000	9.521821
763.000000	9.434513
762.000000	9.347905
761.000000	9.268014
760.000000	9.178244
759.000000	9.094345
758.000000	9.013830
757.000000	8.931307
756.000000	8.848463
755.000000	8.767579
754.000000	8.679871
753.000000	8.594597
752.000000	8.517207
751.000000	8.434575
750.000000	8.357844
749.000000	8.274624
748.000000	8.196659
747.000000	8.115668
746.000000	8.041392
745.000000	7.965460
744.000000	7.888852
743.000000	7.809790
742.000000	7.730380
741.000000	7.653933
740.000000	7.580416
739.000000	7.504421
738.000000	7.432458
737.000000	7.358152
736.000000	7.283018
735.000000	7.210719
734.000000	7.142127
733.000000	7.068499
732.000000	7.003059
731.000000	6.928284
730.000000	6.857070
729.000000	6.788775
728.000000	6.723547
727.000000	6.656170
726.000000	6.590044
725.000000	6.525133
724.000000	6.461838
723.000000	6.395236
722.000000	6.333787
721.000000	6.272836
720.000000	6.211914
719.000000	6.152795
718.000000	6.091432
717.000000	6.034297
716.000000	5.976282
715.000000	5.921528
714.000000	5.866597
713.000000	5.814672
712.000000	5.761374
711.000000	5.709729
710.000000	5.656662
709.000000	5.609125
708.000000	5.559583
707.000000	5.515236
706.000000	5.466053
705.000000	5.421275
704.000000	5.379248
703.000000	5.335260
702.000000	5.290758
701.000000	5.253537
700.000000	5.214553
699.000000	5.173529
698.000000	5.134237
697.000000	5.104819
696.000000	5.073398
695.000000	5.042301
694.000000	5.012463
693.000000	4.984120
692.000000	4.954687
691.000000	4.925335
690.000000	4.902600
689.000000	4.877047
688.000000	4.856434
687.000000	4.838207
686.000000	4.820838
685.000000	4.803906
684.000000	4.788935
683.000000	4.774772
682.000000	4.763125
681.000000	4.753089
680.000000	4.743414
679.000000	4.739258
678.000000	4.735194
677.000000	4.733489
676.000000	4.729802
675.000000	4.733157
674.000000	4.737772
673.000000	4.741343
672.000000	4.748311
671.000000	4.757355
670.000000	4.770267
669.000000	4.785075
668.000000	4.797952
667.000000	4.816365
666.000000	4.834750
665.000000	4.855613
664.000000	4.878152
663.000000	4.905051
662.000000	4.935759
661.000000	4.964389
660.000000	4.995862
659.000000	5.028544
658.000000	5.066527
657.000000	5.105738
656.000000	5.147652
655.000000	5.189808
654.000000	5.235009
653.000000	5.282713
652.000000	5.333457
651.000000	5.384775
650.000000	5.443799
649.000000	5.505517
648.000000	5.564665
647.000000	5.627177
646.000000	5.689139
645.000000	5.757439
644.000000	5.826865
643.000000	5.900681
642.000000	5.977377
641.000000	6.056183
640.000000	6.137791
639.000000	6.220901
638.000000	6.304091
637.000000	6.393666
636.000000	6.485573
635.000000	6.575760
634.000000	6.667490
633.000000	6.767789
632.000000	6.871956
631.000000	6.977048
630.000000	7.083061
629.000000	7.193671
628.000000	7.303908
627.000000	7.417709
626.000000	7.533338
625.000000	7.652711
624.000000	7.774314
623.000000	7.900227
622.000000	8.027274
621.000000	8.157318
620.000000	8.294334
619.000000	8.431515
618.000000	8.567560
617.000000	8.706832
616.000000	8.849434
615.000000	8.989864
614.000000	9.137094
613.000000	9.285823
612.000000	9.439020
611.000000	9.597876
610.000000	9.755974
609.000000	9.916786
608.000000	10.078455
607.000000	10.244882
606.000000	10.409416
605.000000	10.575098
604.000000	10.747617
603.000000	10.922481
602.000000	11.099653
601.000000	11.278378
600.000000	11.458898
599.000000	11.642466
598.000000	11.830340
597.000000	12.014151
596.000000	12.201740
595.000000	12.392887
594.000000	12.584160
593.000000	12.778605
592.000000	12.978062
591.000000	13.182150
590.000000	13.381010
589.000000	13.584524
588.000000	13.791261
587.000000	13.993282
586.000000	14.195988
585.000000	14.404608
584.000000	14.612906
583.000000	14.825470
582.000000	15.041764
581.000000	15.258449
580.000000	15.474549
579.000000	15.699689
578.000000	15.920541
577.000000	16.135467
576.000000	16.352826
575.000000	16.570127
574.000000	16.788434
573.000000	17.018470
572.000000	17.243877
571.000000	17.463654
570.000000	17.696987
569.000000	17.929439
568.000000	18.154121
567.000000	18.381623
566.000000	18.607555
565.000000	18.836937
564.000000	19.070176
563.000000	19.297187
562.000000	19.530155
561.000000	19.776632
560.000000	20.031049
559.000000	20.265771
558.000000	20.499136
557.000000	20.735045
556.000000	20.965283
555.000000	21.203175
554.000000	21.437839
553.000000	21.667970
552.000000	21.902094
551.000000	22.145585
550.000000	22.380664
549.000000	22.610143
548.000000	22.849137
547.000000	23.086384
546.000000	23.316590
545.000000	23.546118
544.000000	23.773922
543.000000	24.005047
542.000000	24.233364
541.000000	24.465554
540.000000	24.708127
539.000000	24.938310
538.000000	25.164036
537.000000	25.393830
536.000000	25.615470
535.000000	25.836239
534.000000	26.062524
533.000000	26.285611
532.000000	26.515734
531.000000	26.748135
530.000000	26.964540
529.000000	27.184004
528.000000	27.413304
527.000000	27.631069
526.000000	27.844853
525.000000	28.053214
524.000000	28.259614
523.000000	28.479168
522.000000	28.683464
521.000000	28.879229
520.000000	29.096640
519.000000	29.304383
518.000000	29.502199
517.000000	29.695259
516.000000	29.887093
515.000000	30.083729
514.000000	30.272196
513.000000	30.463514
512.000000	30.653518
511.000000	30.830396
510.000000	31.012110
509.000000	31.193390
508.000000	31.358890
507.000000	31.520241
506.000000	31.685431
505.000000	31.851653
504.000000	32.006701
503.000000	32.165531
502.000000	32.323201
501.000000	32.467163
500.000000	32.607581
499.000000	32.747188
498.000000	32.894729
497.000000	33.029337
496.000000	33.179431
495.000000	33.317275
494.000000	33.446188
493.000000	33.573494
492.000000	33.706624
491.000000	33.825028
490.000000	33.942873
489.000000	34.057142
488.000000	34.160370
487.000000	34.251409
486.000000	34.341056
485.000000	34.440140
484.000000	34.535586
483.000000	34.633443
482.000000	34.696027
481.000000	34.747602
480.000000	34.813974
479.000000	34.862455
478.000000	34.904984
477.000000	34.940224
476.000000	34.978280
475.000000	35.022015
474.000000	35.041167
473.000000	35.055994
472.000000	35.065882
471.000000	35.059721
470.000000	35.053467
469.000000	35.047371
468.000000	35.027980
467.000000	34.999057
466.000000	34.966141
465.000000	34.922577
464.000000	34.891693
463.000000	34.847398
462.000000	34.779015
461.000000	34.704009
460.000000	34.634072
459.000000	34.542798
458.000000	34.451661
457.000000	34.344320
456.000000	34.231312
455.000000	34.097215
454.000000	33.975269
453.000000	33.849782
452.000000	33.684961
451.000000	33.524405
450.000000	33.356295
449.000000	33.170720
448.000000	32.981087
447.000000	32.776413
446.000000	32.564854
445.000000	32.348383
444.000000	32.117107
443.000000	31.851158
442.000000	31.598124
441.000000	31.340983
440.000000	31.041377
439.000000	30.747378
438.000000	30.440312
437.000000	30.122033
436.000000	29.789593
435.000000	29.451983
434.000000	29.110397
433.000000	28.745976
432.000000	28.352004
431.000000	27.949397
430.000000	27.537525
429.000000	27.107730
428.000000	26.658390
427.000000	26.203322
426.000000	25.741688
425.000000	25.262111
424.000000	24.767809
423.000000	24.249538
422.000000	23.728596
421.000000	23.196479
420.000000	22.628388
419.000000	22.044863
418.000000	21.465848
417.000000	20.878450
416.000000	20.274082
415.000000	19.647538
414.000000	19.023165
413.000000	18.369658
412.000000	17.707531
411.000000	17.043819
410.000000	16.374369
409.000000	15.696724
408.000000	15.018223
407.000000	14.347528
406.000000	13.671088
405.000000	12.991644
404.000000	12.324686
403.000000	11.658836
402.000000	11.002804
401.000000	10.350145
400.000000	9.728192
399.000000	9.133781
398.000000	8.558571
397.000000	8.026782
396.000000	7.528968
395.000000	7.070920
394.000000	6.652967
393.000000	6.288312
392.000000	5.979769
391.000000	5.726374
390.000000	5.546231
389.000000	5.452358
388.000000	5.420989
387.000000	5.470517
386.000000	5.604090
385.000000	5.829669
384.000000	6.149498
383.000000	6.575776
382.000000	7.072512
381.000000	7.687206
380.000000	8.390616
379.000000	9.193539
378.000000	10.425860
377.000000	11.473480
376.000000	12.514853
375.000000	13.613436
374.000000	14.774415
373.000000	15.981864
372.000000	17.257043
371.000000	18.546368
370.000000	19.923319
369.000000	21.284997
368.000000	22.683944
367.000000	24.043496
366.000000	25.440968
365.000000	26.807809
364.000000	28.114398
363.000000	29.377196
362.000000	30.553683
361.000000	31.717125
360.000000	32.786291
359.000000	33.809204
358.000000	34.754640
357.000000	35.586887
356.000000	36.325688
355.000000	37.007359
354.000000	37.563009
353.000000	38.042059
352.000000	38.371990
351.000000	38.665626
350.000000	38.786110
