PE UV       SUBTECH     SPECTRUM    ASCII       PEDS        4.00        
   -1
180627-9 middle omega.Sample.asc
18/06/27
23:46:49.00
18/06/27
23:46:49.00
Analyst
34s15gmt test
350.000000
1
Lambda 950
950L1201053
PerkinElmer UV WinLab 6.0.4.0738 / 1.61.00 Lambda 900

0
0
3350/16 889.8/4
0
0
VIS
1
1
1
CommonBeamDepol,RBeamAtt,SBeamAtt,universal reflectance
0
0
0
0
Program
 
0
3350/0.28 889.8/0.28
0
0
0
 
 
 
0
 
889.8
150
889.8
Front
31
on
3350/S:100 3350/R:100
 
0
0
0
 
0
 
 
 
0
 
 
0
0
8.0
4.00
4.00
False
False
202L1112213
 
0
0


0
0
#HDR
-1
-1
#GR
nm
%R
1.0
0.0
880.000000
-1.000000
531
8
38.870147
4.698039
#DATA
880.000000	19.549451
879.000000	19.476696
878.000000	19.397138
877.000000	19.350414
876.000000	19.269210
875.000000	19.204252
874.000000	19.131367
873.000000	19.054311
872.000000	18.989822
871.000000	18.916047
870.000000	18.861960
869.000000	18.787907
868.000000	18.716350
867.000000	18.647513
866.000000	18.569282
865.000000	18.495225
864.000000	18.422452
863.000000	18.346960
862.000000	18.281652
861.000000	18.211419
860.000000	18.131584
859.000000	18.055055
858.000000	17.987441
857.000000	17.915499
856.000000	17.838058
855.000000	17.755897
854.000000	17.697956
853.000000	17.609101
852.000000	17.531615
851.000000	17.455457
850.000000	17.373859
849.000000	17.297120
848.000000	17.227602
847.000000	17.147435
846.000000	17.080182
845.000000	16.989396
844.000000	16.915199
843.000000	16.824774
842.000000	16.754880
841.000000	16.681493
840.000000	16.588747
839.000000	16.502508
838.000000	16.419600
837.000000	16.346563
836.000000	16.277571
835.000000	16.194457
834.000000	16.109948
833.000000	16.030206
832.000000	15.960438
831.000000	15.874228
830.000000	15.780839
829.000000	15.704907
828.000000	15.603156
827.000000	15.523687
826.000000	15.456105
825.000000	15.357838
824.000000	15.294495
823.000000	15.207161
822.000000	15.113279
821.000000	15.012613
820.000000	14.949825
819.000000	14.859174
818.000000	14.766063
817.000000	14.687380
816.000000	14.605143
815.000000	14.498805
814.000000	14.428993
813.000000	14.342437
812.000000	14.255695
811.000000	14.163176
810.000000	14.086048
809.000000	13.989845
808.000000	13.901911
807.000000	13.824390
806.000000	13.738897
805.000000	13.641661
804.000000	13.548226
803.000000	13.464207
802.000000	13.385983
801.000000	13.287569
800.000000	13.210010
799.000000	13.125579
798.000000	13.016728
797.000000	12.928962
796.000000	12.850933
795.000000	12.752151
794.000000	12.656295
793.000000	12.575467
792.000000	12.485629
791.000000	12.398099
790.000000	12.297085
789.000000	12.204218
788.000000	12.114516
787.000000	12.029993
786.000000	11.940048
785.000000	11.842815
784.000000	11.753615
783.000000	11.659176
782.000000	11.569224
781.000000	11.493666
780.000000	11.394399
779.000000	11.304085
778.000000	11.216197
777.000000	11.115470
776.000000	11.027752
775.000000	10.942873
774.000000	10.855475
773.000000	10.765664
772.000000	10.680780
771.000000	10.588855
770.000000	10.502384
769.000000	10.402512
768.000000	10.320136
767.000000	10.230682
766.000000	10.139520
765.000000	10.048779
764.000000	9.960984
763.000000	9.870677
762.000000	9.783174
761.000000	9.691769
760.000000	9.603291
759.000000	9.513479
758.000000	9.430336
757.000000	9.341954
756.000000	9.250341
755.000000	9.161341
754.000000	9.076393
753.000000	8.990637
752.000000	8.907761
751.000000	8.818648
750.000000	8.738956
749.000000	8.645978
748.000000	8.568248
747.000000	8.483063
746.000000	8.397081
745.000000	8.315808
744.000000	8.233820
743.000000	8.151912
742.000000	8.062976
741.000000	7.983032
740.000000	7.905428
739.000000	7.822360
738.000000	7.744492
737.000000	7.663732
736.000000	7.585647
735.000000	7.505455
734.000000	7.433994
733.000000	7.356798
732.000000	7.284387
731.000000	7.201815
730.000000	7.125266
729.000000	7.053984
728.000000	6.981635
727.000000	6.908302
726.000000	6.838981
725.000000	6.767363
724.000000	6.693629
723.000000	6.627174
722.000000	6.560867
721.000000	6.491552
720.000000	6.425899
719.000000	6.360487
718.000000	6.291793
717.000000	6.224114
716.000000	6.162175
715.000000	6.104676
714.000000	6.040267
713.000000	5.977197
712.000000	5.918662
711.000000	5.864567
710.000000	5.806308
709.000000	5.753348
708.000000	5.694707
707.000000	5.642081
706.000000	5.591855
705.000000	5.542339
704.000000	5.494932
703.000000	5.446328
702.000000	5.398553
701.000000	5.356449
700.000000	5.309045
699.000000	5.264185
698.000000	5.222537
697.000000	5.184765
696.000000	5.147295
695.000000	5.110968
694.000000	5.073813
693.000000	5.040296
692.000000	5.007338
691.000000	4.973750
690.000000	4.946026
689.000000	4.917289
688.000000	4.891150
687.000000	4.865321
686.000000	4.843556
685.000000	4.820911
684.000000	4.803622
683.000000	4.783811
682.000000	4.767348
681.000000	4.749937
680.000000	4.737289
679.000000	4.726889
678.000000	4.719490
677.000000	4.712313
676.000000	4.705416
675.000000	4.701392
674.000000	4.699521
673.000000	4.698039
672.000000	4.698936
671.000000	4.705777
670.000000	4.713496
669.000000	4.721984
668.000000	4.730531
667.000000	4.741620
666.000000	4.756182
665.000000	4.772929
664.000000	4.790193
663.000000	4.811241
662.000000	4.834549
661.000000	4.858126
660.000000	4.886132
659.000000	4.916153
658.000000	4.946570
657.000000	4.980633
656.000000	5.019303
655.000000	5.055726
654.000000	5.094455
653.000000	5.137646
652.000000	5.179046
651.000000	5.227916
650.000000	5.279440
649.000000	5.332455
648.000000	5.386879
647.000000	5.447222
646.000000	5.506148
645.000000	5.569901
644.000000	5.632142
643.000000	5.698945
642.000000	5.768753
641.000000	5.839173
640.000000	5.914253
639.000000	5.993320
638.000000	6.071779
637.000000	6.154982
636.000000	6.241826
635.000000	6.329209
634.000000	6.415006
633.000000	6.507260
632.000000	6.604970
631.000000	6.701887
630.000000	6.802003
629.000000	6.907836
628.000000	7.012105
627.000000	7.118268
626.000000	7.228477
625.000000	7.341950
624.000000	7.457944
623.000000	7.579161
622.000000	7.700018
621.000000	7.820738
620.000000	7.952918
619.000000	8.082989
618.000000	8.214018
617.000000	8.350173
616.000000	8.488435
615.000000	8.623884
614.000000	8.764271
613.000000	8.907271
612.000000	9.057072
611.000000	9.213317
610.000000	9.365919
609.000000	9.519398
608.000000	9.678021
607.000000	9.842735
606.000000	10.000317
605.000000	10.163417
604.000000	10.335328
603.000000	10.507188
602.000000	10.675543
601.000000	10.855229
600.000000	11.037963
599.000000	11.214586
598.000000	11.397243
597.000000	11.580795
596.000000	11.767128
595.000000	11.957610
594.000000	12.146442
593.000000	12.337759
592.000000	12.533693
591.000000	12.741631
590.000000	12.946445
589.000000	13.148444
588.000000	13.352834
587.000000	13.559705
586.000000	13.765340
585.000000	13.975207
584.000000	14.185328
583.000000	14.396044
582.000000	14.614743
581.000000	14.835726
580.000000	15.058910
579.000000	15.286212
578.000000	15.507825
577.000000	15.724941
576.000000	15.942225
575.000000	16.171847
574.000000	16.399555
573.000000	16.628280
572.000000	16.858430
571.000000	17.094428
570.000000	17.330106
569.000000	17.561812
568.000000	17.798129
567.000000	18.041492
566.000000	18.274711
565.000000	18.502591
564.000000	18.741034
563.000000	18.978027
562.000000	19.223549
561.000000	19.475707
560.000000	19.728024
559.000000	19.970423
558.000000	20.213786
557.000000	20.457986
556.000000	20.697611
555.000000	20.940860
554.000000	21.180990
553.000000	21.423606
552.000000	21.668128
551.000000	21.915030
550.000000	22.160188
549.000000	22.405206
548.000000	22.652716
547.000000	22.895580
546.000000	23.129109
545.000000	23.363189
544.000000	23.600652
543.000000	23.846237
542.000000	24.087344
541.000000	24.324398
540.000000	24.565268
539.000000	24.805401
538.000000	25.044545
537.000000	25.281074
536.000000	25.510800
535.000000	25.741058
534.000000	25.975741
533.000000	26.205837
532.000000	26.448470
531.000000	26.685327
530.000000	26.910632
529.000000	27.135665
528.000000	27.356872
527.000000	27.584817
526.000000	27.807516
525.000000	28.021578
524.000000	28.240118
523.000000	28.462035
522.000000	28.669370
521.000000	28.869206
520.000000	29.083393
519.000000	29.300008
518.000000	29.499951
517.000000	29.697021
516.000000	29.902581
515.000000	30.104131
514.000000	30.290098
513.000000	30.484741
512.000000	30.677276
511.000000	30.859458
510.000000	31.052332
509.000000	31.233267
508.000000	31.407522
507.000000	31.579410
506.000000	31.752652
505.000000	31.917045
504.000000	32.081255
503.000000	32.247796
502.000000	32.408418
501.000000	32.563129
500.000000	32.716198
499.000000	32.861541
498.000000	33.010503
497.000000	33.155413
496.000000	33.304889
495.000000	33.456292
494.000000	33.605499
493.000000	33.741461
492.000000	33.872170
491.000000	34.009339
490.000000	34.143312
489.000000	34.268524
488.000000	34.376893
487.000000	34.482981
486.000000	34.591187
485.000000	34.695385
484.000000	34.797519
483.000000	34.901961
482.000000	34.978526
481.000000	35.056097
480.000000	35.145432
479.000000	35.211763
478.000000	35.265627
477.000000	35.324849
476.000000	35.374098
475.000000	35.430917
474.000000	35.466241
473.000000	35.497618
472.000000	35.530223
471.000000	35.542910
470.000000	35.553207
469.000000	35.569652
468.000000	35.566522
467.000000	35.564366
466.000000	35.556280
465.000000	35.514760
464.000000	35.491272
463.000000	35.475013
462.000000	35.438547
461.000000	35.387073
460.000000	35.323425
459.000000	35.239295
458.000000	35.166874
457.000000	35.084817
456.000000	35.010519
455.000000	34.894976
454.000000	34.779447
453.000000	34.660450
452.000000	34.521295
451.000000	34.374421
450.000000	34.217427
449.000000	34.055411
448.000000	33.886238
447.000000	33.695393
446.000000	33.489943
445.000000	33.281018
444.000000	33.060994
443.000000	32.826649
442.000000	32.568802
441.000000	32.318857
440.000000	32.033629
439.000000	31.753227
438.000000	31.465672
437.000000	31.156893
436.000000	30.829866
435.000000	30.508678
434.000000	30.163306
433.000000	29.790878
432.000000	29.420422
431.000000	29.023210
430.000000	28.603153
429.000000	28.175559
428.000000	27.738902
427.000000	27.289947
426.000000	26.828646
425.000000	26.360528
424.000000	25.867804
423.000000	25.348572
422.000000	24.826114
421.000000	24.291333
420.000000	23.737089
419.000000	23.144175
418.000000	22.570756
417.000000	21.984046
416.000000	21.381110
415.000000	20.762594
414.000000	20.126433
413.000000	19.477561
412.000000	18.812126
411.000000	18.136940
410.000000	17.456131
409.000000	16.765383
408.000000	16.079718
407.000000	15.400254
406.000000	14.694249
405.000000	14.004907
404.000000	13.318798
403.000000	12.632119
402.000000	11.942562
401.000000	11.255977
400.000000	10.585555
399.000000	9.953405
398.000000	9.334457
397.000000	8.745198
396.000000	8.197462
395.000000	7.675562
394.000000	7.194269
393.000000	6.760204
392.000000	6.371040
391.000000	6.041621
390.000000	5.786839
389.000000	5.595228
388.000000	5.477041
387.000000	5.439863
386.000000	5.489287
385.000000	5.629117
384.000000	5.857422
383.000000	6.195918
382.000000	6.617411
381.000000	7.147349
380.000000	7.790434
379.000000	8.529054
378.000000	9.662071
377.000000	10.688721
376.000000	11.695932
375.000000	12.790222
374.000000	13.928479
373.000000	15.137118
372.000000	16.402165
371.000000	17.734709
370.000000	19.108224
369.000000	20.543046
368.000000	21.963463
367.000000	23.359524
366.000000	24.800975
365.000000	26.217403
364.000000	27.558688
363.000000	28.861090
362.000000	30.111524
361.000000	31.318941
360.000000	32.435132
359.000000	33.498221
358.000000	34.505692
357.000000	35.388141
356.000000	36.186588
355.000000	36.898683
354.000000	37.498209
353.000000	38.001194
352.000000	38.389446
351.000000	38.688307
350.000000	38.870147
