PE UV       SUBTECH     SPECTRUM    ASCII       PEDS        4.00        
   -1
180627-8 top alpha.Sample.asc
18/06/27
22:24:32.00
18/06/27
22:24:32.00
Analyst
34s15gmt test
350.000000
1
Lambda 950
950L1201053
PerkinElmer UV WinLab 6.0.4.0738 / 1.61.00 Lambda 900

0
0
3350/16 889.8/4
0
0
VIS
1
1
1
CommonBeamDepol,RBeamAtt,SBeamAtt,universal reflectance
0
0
0
0
Program
 
0
3350/0.28 889.8/0.28
0
0
0
 
 
 
0
 
889.8
150
889.8
Front
31
on
3350/S:100 3350/R:100
 
0
0
0
 
0
 
 
 
0
 
 
0
0
8.0
4.00
4.00
False
False
202L1112213
 
0
0


0
0
#HDR
-1
-1
#GR
nm
%R
1.0
0.0
880.000000
-1.000000
531
8
36.388876
4.476044
#DATA
880.000000	21.255072
879.000000	21.202556
878.000000	21.142012
877.000000	21.072200
876.000000	20.994420
875.000000	20.943257
874.000000	20.881279
873.000000	20.809004
872.000000	20.752063
871.000000	20.670566
870.000000	20.604526
869.000000	20.543289
868.000000	20.484055
867.000000	20.417352
866.000000	20.339785
865.000000	20.275409
864.000000	20.210461
863.000000	20.137980
862.000000	20.082171
861.000000	20.009222
860.000000	19.941549
859.000000	19.849187
858.000000	19.789880
857.000000	19.714184
856.000000	19.645009
855.000000	19.575904
854.000000	19.507803
853.000000	19.420665
852.000000	19.347179
851.000000	19.271967
850.000000	19.200808
849.000000	19.126738
848.000000	19.063922
847.000000	18.973408
846.000000	18.911939
845.000000	18.836977
844.000000	18.772353
843.000000	18.672385
842.000000	18.605603
841.000000	18.528447
840.000000	18.458813
839.000000	18.387722
838.000000	18.299023
837.000000	18.217063
836.000000	18.136500
835.000000	18.052656
834.000000	17.982378
833.000000	17.918066
832.000000	17.832533
831.000000	17.745064
830.000000	17.673480
829.000000	17.598805
828.000000	17.500675
827.000000	17.424065
826.000000	17.350904
825.000000	17.276268
824.000000	17.170332
823.000000	17.112750
822.000000	17.026547
821.000000	16.954098
820.000000	16.854235
819.000000	16.779954
818.000000	16.701663
817.000000	16.609494
816.000000	16.528284
815.000000	16.446546
814.000000	16.376567
813.000000	16.276078
812.000000	16.190868
811.000000	16.106130
810.000000	16.014045
809.000000	15.931584
808.000000	15.856477
807.000000	15.762982
806.000000	15.673472
805.000000	15.587695
804.000000	15.500430
803.000000	15.417803
802.000000	15.316589
801.000000	15.234075
800.000000	15.148296
799.000000	15.058178
798.000000	14.976720
797.000000	14.885703
796.000000	14.786948
795.000000	14.707796
794.000000	14.611367
793.000000	14.527449
792.000000	14.438811
791.000000	14.335688
790.000000	14.248198
789.000000	14.162285
788.000000	14.072504
787.000000	13.976075
786.000000	13.874853
785.000000	13.788958
784.000000	13.695255
783.000000	13.601458
782.000000	13.503951
781.000000	13.415201
780.000000	13.326963
779.000000	13.241529
778.000000	13.134660
777.000000	13.046428
776.000000	12.963276
775.000000	12.864879
774.000000	12.774046
773.000000	12.672375
772.000000	12.589034
771.000000	12.478569
770.000000	12.395981
769.000000	12.300331
768.000000	12.214387
767.000000	12.110121
766.000000	12.013943
765.000000	11.916645
764.000000	11.829494
763.000000	11.730712
762.000000	11.639637
761.000000	11.539546
760.000000	11.440016
759.000000	11.354699
758.000000	11.261212
757.000000	11.161523
756.000000	11.060081
755.000000	10.975359
754.000000	10.882325
753.000000	10.791768
752.000000	10.699456
751.000000	10.604414
750.000000	10.507585
749.000000	10.412756
748.000000	10.314879
747.000000	10.222748
746.000000	10.133410
745.000000	10.037938
744.000000	9.934330
743.000000	9.848496
742.000000	9.756164
741.000000	9.663565
740.000000	9.572160
739.000000	9.475561
738.000000	9.384179
737.000000	9.295671
736.000000	9.204636
735.000000	9.111246
734.000000	9.023612
733.000000	8.936503
732.000000	8.842719
731.000000	8.744465
730.000000	8.661791
729.000000	8.568531
728.000000	8.478307
727.000000	8.389169
726.000000	8.301420
725.000000	8.216038
724.000000	8.129223
723.000000	8.042999
722.000000	7.952864
721.000000	7.868222
720.000000	7.784826
719.000000	7.699710
718.000000	7.614913
717.000000	7.530518
716.000000	7.450586
715.000000	7.369745
714.000000	7.287327
713.000000	7.204292
712.000000	7.124410
711.000000	7.044669
710.000000	6.964269
709.000000	6.884291
708.000000	6.805141
707.000000	6.731129
706.000000	6.653882
705.000000	6.580362
704.000000	6.511250
703.000000	6.439732
702.000000	6.364225
701.000000	6.292505
700.000000	6.225538
699.000000	6.154430
698.000000	6.082920
697.000000	6.015719
696.000000	5.951876
695.000000	5.887573
694.000000	5.823460
693.000000	5.760237
692.000000	5.698008
691.000000	5.637501
690.000000	5.575544
689.000000	5.514699
688.000000	5.456735
687.000000	5.402151
686.000000	5.343574
685.000000	5.294388
684.000000	5.245592
683.000000	5.194678
682.000000	5.142079
681.000000	5.098209
680.000000	5.051463
679.000000	5.006067
678.000000	4.964781
677.000000	4.924465
676.000000	4.884816
675.000000	4.843060
674.000000	4.809516
673.000000	4.777401
672.000000	4.743336
671.000000	4.712468
670.000000	4.680717
669.000000	4.652168
668.000000	4.627723
667.000000	4.606097
666.000000	4.583539
665.000000	4.563317
664.000000	4.545944
663.000000	4.531255
662.000000	4.515073
661.000000	4.502934
660.000000	4.496198
659.000000	4.487434
658.000000	4.482010
657.000000	4.478600
656.000000	4.477746
655.000000	4.476044
654.000000	4.477563
653.000000	4.483219
652.000000	4.493908
651.000000	4.503517
650.000000	4.512377
649.000000	4.528875
648.000000	4.543799
647.000000	4.564381
646.000000	4.587641
645.000000	4.612419
644.000000	4.637960
643.000000	4.666024
642.000000	4.695532
641.000000	4.730784
640.000000	4.771856
639.000000	4.809094
638.000000	4.851885
637.000000	4.896208
636.000000	4.943495
635.000000	4.994802
634.000000	5.045860
633.000000	5.099130
632.000000	5.156795
631.000000	5.218593
630.000000	5.282945
629.000000	5.353026
628.000000	5.421481
627.000000	5.492810
626.000000	5.567976
625.000000	5.646503
624.000000	5.726089
623.000000	5.809801
622.000000	5.896822
621.000000	5.983424
620.000000	6.076325
619.000000	6.172575
618.000000	6.272437
617.000000	6.374154
616.000000	6.474427
615.000000	6.578419
614.000000	6.688235
613.000000	6.802805
612.000000	6.918177
611.000000	7.036894
610.000000	7.158375
609.000000	7.285255
608.000000	7.415998
607.000000	7.544399
606.000000	7.673804
605.000000	7.807711
604.000000	7.945400
603.000000	8.089020
602.000000	8.235215
601.000000	8.383275
600.000000	8.535183
599.000000	8.687062
598.000000	8.845611
597.000000	9.007657
596.000000	9.164533
595.000000	9.322480
594.000000	9.489967
593.000000	9.661398
592.000000	9.834229
591.000000	10.011623
590.000000	10.191685
589.000000	10.373287
588.000000	10.555808
587.000000	10.741609
586.000000	10.927132
585.000000	11.119196
584.000000	11.310180
583.000000	11.501637
582.000000	11.701892
581.000000	11.905353
580.000000	12.109498
579.000000	12.313032
578.000000	12.522223
577.000000	12.735450
576.000000	12.943123
575.000000	13.151096
574.000000	13.363114
573.000000	13.584783
572.000000	13.814036
571.000000	14.032171
570.000000	14.254420
569.000000	14.479893
568.000000	14.705581
567.000000	14.937335
566.000000	15.165297
565.000000	15.393668
564.000000	15.622530
563.000000	15.858863
562.000000	16.105489
561.000000	16.356961
560.000000	16.608249
559.000000	16.857200
558.000000	17.103497
557.000000	17.339995
556.000000	17.586305
555.000000	17.835257
554.000000	18.077359
553.000000	18.331370
552.000000	18.587602
551.000000	18.837458
550.000000	19.091101
549.000000	19.345564
548.000000	19.596107
547.000000	19.845411
546.000000	20.108815
545.000000	20.362762
544.000000	20.608695
543.000000	20.865333
542.000000	21.127082
541.000000	21.385337
540.000000	21.639810
539.000000	21.903268
538.000000	22.164925
537.000000	22.417395
536.000000	22.671649
535.000000	22.928388
534.000000	23.186802
533.000000	23.448825
532.000000	23.709229
531.000000	23.964654
530.000000	24.216661
529.000000	24.479438
528.000000	24.736192
527.000000	24.985432
526.000000	25.232110
525.000000	25.473587
524.000000	25.732544
523.000000	25.993040
522.000000	26.236788
521.000000	26.482000
520.000000	26.735115
519.000000	26.981508
518.000000	27.230718
517.000000	27.467036
516.000000	27.690300
515.000000	27.930643
514.000000	28.167225
513.000000	28.399751
512.000000	28.635006
511.000000	28.859395
510.000000	29.082833
509.000000	29.306770
508.000000	29.527960
507.000000	29.746398
506.000000	29.959576
505.000000	30.173971
504.000000	30.387190
503.000000	30.594523
502.000000	30.796933
501.000000	30.999086
500.000000	31.194507
499.000000	31.401897
498.000000	31.601179
497.000000	31.788409
496.000000	31.980573
495.000000	32.160300
494.000000	32.361457
493.000000	32.566063
492.000000	32.764429
491.000000	32.950730
490.000000	33.119814
489.000000	33.301566
488.000000	33.484242
487.000000	33.653487
486.000000	33.817980
485.000000	33.971778
484.000000	34.126655
483.000000	34.305636
482.000000	34.467044
481.000000	34.606643
480.000000	34.742226
479.000000	34.862445
478.000000	34.970724
477.000000	35.082816
476.000000	35.201988
475.000000	35.313753
474.000000	35.413864
473.000000	35.505761
472.000000	35.600312
471.000000	35.698919
470.000000	35.770423
469.000000	35.844362
468.000000	35.916935
467.000000	35.985305
466.000000	36.044757
465.000000	36.090353
464.000000	36.133554
463.000000	36.164099
462.000000	36.199812
461.000000	36.230817
460.000000	36.241029
459.000000	36.263317
458.000000	36.275783
457.000000	36.264682
456.000000	36.240668
455.000000	36.204888
454.000000	36.192441
453.000000	36.162420
452.000000	36.127170
451.000000	36.075411
450.000000	36.000257
449.000000	35.949789
448.000000	35.861355
447.000000	35.768870
446.000000	35.664380
445.000000	35.555410
444.000000	35.438185
443.000000	35.293654
442.000000	35.150192
441.000000	34.998144
440.000000	34.843075
439.000000	34.675335
438.000000	34.453803
437.000000	34.274700
436.000000	34.055912
435.000000	33.830525
434.000000	33.580682
433.000000	33.343958
432.000000	33.087597
431.000000	32.794102
430.000000	32.486900
429.000000	32.184393
428.000000	31.860323
427.000000	31.522850
426.000000	31.175836
425.000000	30.798267
424.000000	30.390302
423.000000	29.978076
422.000000	29.557997
421.000000	29.113209
420.000000	28.658775
419.000000	28.184225
418.000000	27.689792
417.000000	27.164277
416.000000	26.645782
415.000000	26.107680
414.000000	25.549197
413.000000	24.960329
412.000000	24.345877
411.000000	23.723198
410.000000	23.069274
409.000000	22.401381
408.000000	21.735977
407.000000	21.042495
406.000000	20.333201
405.000000	19.623173
404.000000	18.894867
403.000000	18.139560
402.000000	17.371975
401.000000	16.610626
400.000000	15.824070
399.000000	15.031914
398.000000	14.244379
397.000000	13.460156
396.000000	12.692698
395.000000	11.938551
394.000000	11.188502
393.000000	10.450790
392.000000	9.739736
391.000000	9.048420
390.000000	8.396374
389.000000	7.782100
388.000000	7.221599
387.000000	6.712748
386.000000	6.282844
385.000000	5.917343
384.000000	5.615224
383.000000	5.403189
382.000000	5.278103
381.000000	5.250395
380.000000	5.347207
379.000000	5.540289
378.000000	5.986148
377.000000	6.493964
376.000000	7.055956
375.000000	7.697240
374.000000	8.482254
373.000000	9.372029
372.000000	10.375590
371.000000	11.498014
370.000000	12.665710
369.000000	13.950688
368.000000	15.266484
367.000000	16.664047
366.000000	18.088336
365.000000	19.547354
364.000000	21.037991
363.000000	22.489490
362.000000	23.907065
361.000000	25.349198
360.000000	26.745658
359.000000	28.076122
358.000000	29.354370
357.000000	30.587798
356.000000	31.668206
355.000000	32.691768
354.000000	33.637517
353.000000	34.500686
352.000000	35.286386
351.000000	35.902726
350.000000	36.388876
