PE UV       SUBTECH     SPECTRUM    ASCII       PEDS        4.00        
   -1
180627-9 bottom alpha.Sample.asc
18/06/27
23:38:09.00
18/06/27
23:38:09.00
Analyst
34s15gmt test
350.000000
1
Lambda 950
950L1201053
PerkinElmer UV WinLab 6.0.4.0738 / 1.61.00 Lambda 900

0
0
3350/16 889.8/4
0
0
VIS
1
1
1
CommonBeamDepol,RBeamAtt,SBeamAtt,universal reflectance
0
0
0
0
Program
 
0
3350/0.28 889.8/0.28
0
0
0
 
 
 
0
 
889.8
150
889.8
Front
31
on
3350/S:100 3350/R:100
 
0
0
0
 
0
 
 
 
0
 
 
0
0
8.0
4.00
4.00
False
False
202L1112213
 
0
0


0
0
#HDR
-1
-1
#GR
nm
%R
1.0
0.0
880.000000
-1.000000
531
8
38.354112
4.742769
#DATA
880.000000	19.325434
879.000000	19.269092
878.000000	19.185019
877.000000	19.126984
876.000000	19.068810
875.000000	18.995161
874.000000	18.931134
873.000000	18.866181
872.000000	18.788648
871.000000	18.718637
870.000000	18.656378
869.000000	18.577804
868.000000	18.507213
867.000000	18.440446
866.000000	18.350189
865.000000	18.284198
864.000000	18.222665
863.000000	18.152233
862.000000	18.091364
861.000000	18.004107
860.000000	17.921551
859.000000	17.859956
858.000000	17.793198
857.000000	17.728582
856.000000	17.650437
855.000000	17.567135
854.000000	17.501218
853.000000	17.429217
852.000000	17.337954
851.000000	17.268912
850.000000	17.194431
849.000000	17.107853
848.000000	17.033982
847.000000	16.957563
846.000000	16.893543
845.000000	16.808280
844.000000	16.741831
843.000000	16.655787
842.000000	16.576750
841.000000	16.502153
840.000000	16.419254
839.000000	16.321837
838.000000	16.267050
837.000000	16.177388
836.000000	16.112361
835.000000	16.024412
834.000000	15.954814
833.000000	15.856959
832.000000	15.789846
831.000000	15.710946
830.000000	15.626178
829.000000	15.546870
828.000000	15.458869
827.000000	15.384657
826.000000	15.297980
825.000000	15.217183
824.000000	15.135540
823.000000	15.059138
822.000000	14.972624
821.000000	14.880806
820.000000	14.812449
819.000000	14.730439
818.000000	14.636473
817.000000	14.556125
816.000000	14.467859
815.000000	14.370237
814.000000	14.310401
813.000000	14.216524
812.000000	14.125038
811.000000	14.047429
810.000000	13.957167
809.000000	13.866578
808.000000	13.789073
807.000000	13.699203
806.000000	13.627279
805.000000	13.541838
804.000000	13.443054
803.000000	13.355212
802.000000	13.280045
801.000000	13.186300
800.000000	13.115721
799.000000	13.021155
798.000000	12.931085
797.000000	12.839277
796.000000	12.761182
795.000000	12.667115
794.000000	12.577479
793.000000	12.490315
792.000000	12.408961
791.000000	12.313011
790.000000	12.222941
789.000000	12.133016
788.000000	12.044878
787.000000	11.964692
786.000000	11.871370
785.000000	11.789860
784.000000	11.694671
783.000000	11.607535
782.000000	11.521144
781.000000	11.433848
780.000000	11.341009
779.000000	11.258194
778.000000	11.166025
777.000000	11.083314
776.000000	10.988285
775.000000	10.908630
774.000000	10.811634
773.000000	10.727398
772.000000	10.645414
771.000000	10.552493
770.000000	10.465418
769.000000	10.376253
768.000000	10.295476
767.000000	10.209108
766.000000	10.113376
765.000000	10.023056
764.000000	9.946787
763.000000	9.856954
762.000000	9.772896
761.000000	9.683809
760.000000	9.597824
759.000000	9.508904
758.000000	9.433842
757.000000	9.343559
756.000000	9.255511
755.000000	9.175246
754.000000	9.084056
753.000000	8.997290
752.000000	8.918694
751.000000	8.835642
750.000000	8.753157
749.000000	8.667958
748.000000	8.586908
747.000000	8.503975
746.000000	8.424652
745.000000	8.347134
744.000000	8.261274
743.000000	8.182933
742.000000	8.094698
741.000000	8.019031
740.000000	7.941329
739.000000	7.864978
738.000000	7.785977
737.000000	7.705391
736.000000	7.629695
735.000000	7.551992
734.000000	7.477566
733.000000	7.403858
732.000000	7.332058
731.000000	7.253989
730.000000	7.182482
729.000000	7.106159
728.000000	7.036379
727.000000	6.964826
726.000000	6.895925
725.000000	6.831919
724.000000	6.758071
723.000000	6.686139
722.000000	6.621679
721.000000	6.553617
720.000000	6.490172
719.000000	6.421968
718.000000	6.357192
717.000000	6.292916
716.000000	6.230086
715.000000	6.176948
714.000000	6.114527
713.000000	6.054980
712.000000	5.993530
711.000000	5.937705
710.000000	5.881727
709.000000	5.827333
708.000000	5.769882
707.000000	5.718081
706.000000	5.665552
705.000000	5.616821
704.000000	5.568921
703.000000	5.521940
702.000000	5.470952
701.000000	5.427001
700.000000	5.378486
699.000000	5.337590
698.000000	5.292463
697.000000	5.255372
696.000000	5.215600
695.000000	5.178444
694.000000	5.143612
693.000000	5.109326
692.000000	5.075874
691.000000	5.038045
690.000000	5.008370
689.000000	4.978455
688.000000	4.951307
687.000000	4.924842
686.000000	4.901005
685.000000	4.880608
684.000000	4.860290
683.000000	4.838760
682.000000	4.822366
681.000000	4.804175
680.000000	4.790689
679.000000	4.778924
678.000000	4.769516
677.000000	4.760732
676.000000	4.752581
675.000000	4.748385
674.000000	4.742769
673.000000	4.743841
672.000000	4.743016
671.000000	4.744565
670.000000	4.752058
669.000000	4.759839
668.000000	4.767306
667.000000	4.777326
666.000000	4.788681
665.000000	4.803645
664.000000	4.820782
663.000000	4.838384
662.000000	4.859435
661.000000	4.882058
660.000000	4.908935
659.000000	4.935203
658.000000	4.966156
657.000000	4.998437
656.000000	5.035146
655.000000	5.071273
654.000000	5.109046
653.000000	5.150390
652.000000	5.193040
651.000000	5.238992
650.000000	5.289862
649.000000	5.343476
648.000000	5.395876
647.000000	5.449188
646.000000	5.506446
645.000000	5.566981
644.000000	5.628626
643.000000	5.694357
642.000000	5.762196
641.000000	5.830352
640.000000	5.905314
639.000000	5.981816
638.000000	6.058426
637.000000	6.139837
636.000000	6.221667
635.000000	6.307500
634.000000	6.393062
633.000000	6.484595
632.000000	6.577592
631.000000	6.674980
630.000000	6.774918
629.000000	6.875440
628.000000	6.976368
627.000000	7.079428
626.000000	7.187781
625.000000	7.300233
624.000000	7.410796
623.000000	7.526276
622.000000	7.645216
621.000000	7.764333
620.000000	7.893926
619.000000	8.024454
618.000000	8.154168
617.000000	8.283691
616.000000	8.415781
615.000000	8.549983
614.000000	8.688810
613.000000	8.829481
612.000000	8.971517
611.000000	9.121690
610.000000	9.272320
609.000000	9.426446
608.000000	9.579975
607.000000	9.730090
606.000000	9.888565
605.000000	10.048373
604.000000	10.214370
603.000000	10.381422
602.000000	10.547413
601.000000	10.718766
600.000000	10.894340
599.000000	11.066374
598.000000	11.246634
597.000000	11.424316
596.000000	11.603842
595.000000	11.786360
594.000000	11.968349
593.000000	12.156283
592.000000	12.343959
591.000000	12.537062
590.000000	12.738865
589.000000	12.936963
588.000000	13.131613
587.000000	13.330992
586.000000	13.531770
585.000000	13.733241
584.000000	13.935673
583.000000	14.139227
582.000000	14.349586
581.000000	14.562866
580.000000	14.769443
579.000000	14.990906
578.000000	15.210303
577.000000	15.422641
576.000000	15.637574
575.000000	15.854207
574.000000	16.069350
573.000000	16.293119
572.000000	16.519378
571.000000	16.739607
570.000000	16.961966
569.000000	17.193104
568.000000	17.421965
567.000000	17.647324
566.000000	17.872765
565.000000	18.099382
564.000000	18.329981
563.000000	18.560585
562.000000	18.797710
561.000000	19.044757
560.000000	19.294804
559.000000	19.532732
558.000000	19.767540
557.000000	20.004073
556.000000	20.241164
555.000000	20.478690
554.000000	20.711425
553.000000	20.943379
552.000000	21.182770
551.000000	21.424060
550.000000	21.664628
549.000000	21.903848
548.000000	22.139753
547.000000	22.374128
546.000000	22.612870
545.000000	22.848658
544.000000	23.075947
543.000000	23.313544
542.000000	23.544422
541.000000	23.779358
540.000000	24.024495
539.000000	24.257552
538.000000	24.489014
537.000000	24.730184
536.000000	24.962754
535.000000	25.187713
534.000000	25.418884
533.000000	25.646508
532.000000	25.879275
531.000000	26.109567
530.000000	26.333534
529.000000	26.559834
528.000000	26.789100
527.000000	27.009830
526.000000	27.228762
525.000000	27.442477
524.000000	27.656938
523.000000	27.874780
522.000000	28.083901
521.000000	28.296249
520.000000	28.517688
519.000000	28.731681
518.000000	28.932600
517.000000	29.131933
516.000000	29.335374
515.000000	29.533107
514.000000	29.722792
513.000000	29.917797
512.000000	30.111632
511.000000	30.299165
510.000000	30.482203
509.000000	30.660544
508.000000	30.837092
507.000000	31.007416
506.000000	31.175708
505.000000	31.350341
504.000000	31.518984
503.000000	31.678895
502.000000	31.837887
501.000000	32.001570
500.000000	32.153681
499.000000	32.293419
498.000000	32.439756
497.000000	32.591835
496.000000	32.745411
495.000000	32.902319
494.000000	33.041084
493.000000	33.162629
492.000000	33.304462
491.000000	33.442706
490.000000	33.573587
489.000000	33.694334
488.000000	33.805271
487.000000	33.908822
486.000000	34.017022
485.000000	34.123947
484.000000	34.225870
483.000000	34.323314
482.000000	34.409446
481.000000	34.481226
480.000000	34.557909
479.000000	34.636397
478.000000	34.694807
477.000000	34.751021
476.000000	34.809784
475.000000	34.850176
474.000000	34.882411
473.000000	34.917723
472.000000	34.947161
471.000000	34.963095
470.000000	34.983903
469.000000	34.998949
468.000000	34.995714
467.000000	34.985546
466.000000	34.977820
465.000000	34.950290
464.000000	34.931057
463.000000	34.905994
462.000000	34.869671
461.000000	34.826069
460.000000	34.769688
459.000000	34.703854
458.000000	34.631509
457.000000	34.546885
456.000000	34.466898
455.000000	34.356271
454.000000	34.254662
453.000000	34.151925
452.000000	34.020793
451.000000	33.876904
450.000000	33.739905
449.000000	33.581185
448.000000	33.417542
447.000000	33.239282
446.000000	33.052728
445.000000	32.857126
444.000000	32.656550
443.000000	32.425688
442.000000	32.207138
441.000000	31.969844
440.000000	31.698247
439.000000	31.429595
438.000000	31.150765
437.000000	30.868149
436.000000	30.565418
435.000000	30.253466
434.000000	29.933917
433.000000	29.585614
432.000000	29.223119
431.000000	28.852627
430.000000	28.459625
429.000000	28.056550
428.000000	27.642197
427.000000	27.215691
426.000000	26.776594
425.000000	26.323217
424.000000	25.849974
423.000000	25.347895
422.000000	24.845861
421.000000	24.338237
420.000000	23.802227
419.000000	23.251367
418.000000	22.685775
417.000000	22.110683
416.000000	21.519612
415.000000	20.921571
414.000000	20.309643
413.000000	19.680445
412.000000	19.027109
411.000000	18.364170
410.000000	17.704518
409.000000	17.023896
408.000000	16.348877
407.000000	15.675295
406.000000	14.992995
405.000000	14.307872
404.000000	13.623412
403.000000	12.937761
402.000000	12.263767
401.000000	11.581072
400.000000	10.920668
399.000000	10.282024
398.000000	9.656910
397.000000	9.061914
396.000000	8.500115
395.000000	7.971330
394.000000	7.480139
393.000000	7.021137
392.000000	6.616052
391.000000	6.260098
390.000000	5.975652
389.000000	5.750305
388.000000	5.595186
387.000000	5.513821
386.000000	5.510166
385.000000	5.606480
384.000000	5.783311
383.000000	6.065805
382.000000	6.417559
381.000000	6.886789
380.000000	7.451956
379.000000	8.118644
378.000000	9.170010
377.000000	10.112099
376.000000	11.049983
375.000000	12.064406
374.000000	13.138443
373.000000	14.294706
372.000000	15.511433
371.000000	16.775666
370.000000	18.122040
369.000000	19.485459
368.000000	20.880187
367.000000	22.241749
366.000000	23.683611
365.000000	25.066410
364.000000	26.416672
363.000000	27.740982
362.000000	28.982615
361.000000	30.203356
360.000000	31.365272
359.000000	32.470553
358.000000	33.528586
357.000000	34.452679
356.000000	35.300783
355.000000	36.072578
354.000000	36.725803
353.000000	37.306358
352.000000	37.747908
351.000000	38.140677
350.000000	38.354112
