PE UV       SUBTECH     SPECTRUM    ASCII       PEDS        4.00        
   -1
180625-3 z bot.Sample.asc
18/06/25
21:56:54.00
18/06/25
21:56:54.00
Analyst
34s15gmt
350.000000
1
Lambda 950
950L1201053
PerkinElmer UV WinLab 6.0.4.0738 / 1.61.00 Lambda 900

0
0
3350/16 889.8/4
0
0
VIS
1
1
1
CommonBeamDepol,RBeamAtt,SBeamAtt,universal reflectance
0
0
0
0
Program
 
0
3350/0.28 889.8/0.28
0
0
0
 
 
 
0
 
889.8
150
889.8
Front
31
on
3350/S:100 3350/R:100
 
0
0
0
 
0
 
 
 
0
 
 
0
0
8.0
4.00
4.00
False
False
202L1112213
 
0
0


0
0
#HDR
-1
-1
#GR
nm
%R
1.0
0.0
880.000000
-1.000000
531
8
40.378745
4.640324
#DATA
880.000000	18.349780
879.000000	18.271706
878.000000	18.186101
877.000000	18.133003
876.000000	18.046196
875.000000	17.970047
874.000000	17.886358
873.000000	17.819450
872.000000	17.751301
871.000000	17.668845
870.000000	17.592181
869.000000	17.503201
868.000000	17.430965
867.000000	17.345760
866.000000	17.285339
865.000000	17.216358
864.000000	17.127089
863.000000	17.055444
862.000000	16.969920
861.000000	16.893465
860.000000	16.816278
859.000000	16.724370
858.000000	16.655344
857.000000	16.566281
856.000000	16.492480
855.000000	16.408004
854.000000	16.340276
853.000000	16.255924
852.000000	16.178522
851.000000	16.088399
850.000000	16.007241
849.000000	15.919641
848.000000	15.850107
847.000000	15.761607
846.000000	15.688867
845.000000	15.593581
844.000000	15.503507
843.000000	15.437702
842.000000	15.336047
841.000000	15.258475
840.000000	15.180483
839.000000	15.091660
838.000000	14.999147
837.000000	14.916480
836.000000	14.843250
835.000000	14.747118
834.000000	14.676946
833.000000	14.577074
832.000000	14.497657
831.000000	14.423777
830.000000	14.323929
829.000000	14.249500
828.000000	14.154015
827.000000	14.068067
826.000000	13.991971
825.000000	13.899395
824.000000	13.812698
823.000000	13.723074
822.000000	13.637047
821.000000	13.558948
820.000000	13.460038
819.000000	13.366200
818.000000	13.277438
817.000000	13.191957
816.000000	13.107120
815.000000	13.019567
814.000000	12.927415
813.000000	12.831251
812.000000	12.751951
811.000000	12.655575
810.000000	12.569657
809.000000	12.486986
808.000000	12.395123
807.000000	12.308327
806.000000	12.215562
805.000000	12.135440
804.000000	12.044285
803.000000	11.954919
802.000000	11.862157
801.000000	11.777788
800.000000	11.679857
799.000000	11.589684
798.000000	11.513681
797.000000	11.417232
796.000000	11.327522
795.000000	11.242316
794.000000	11.144342
793.000000	11.053991
792.000000	10.977892
791.000000	10.882622
790.000000	10.797012
789.000000	10.710711
788.000000	10.615061
787.000000	10.520123
786.000000	10.436810
785.000000	10.354299
784.000000	10.266942
783.000000	10.178695
782.000000	10.085753
781.000000	9.995752
780.000000	9.912199
779.000000	9.821711
778.000000	9.739549
777.000000	9.648088
776.000000	9.560629
775.000000	9.469566
774.000000	9.380927
773.000000	9.304213
772.000000	9.218077
771.000000	9.135766
770.000000	9.049589
769.000000	8.960516
768.000000	8.873524
767.000000	8.794670
766.000000	8.711734
765.000000	8.627117
764.000000	8.540243
763.000000	8.458836
762.000000	8.380023
761.000000	8.291400
760.000000	8.211901
759.000000	8.130429
758.000000	8.042457
757.000000	7.966314
756.000000	7.890789
755.000000	7.811802
754.000000	7.729886
753.000000	7.656025
752.000000	7.577110
751.000000	7.499554
750.000000	7.422201
749.000000	7.348743
748.000000	7.272951
747.000000	7.197777
746.000000	7.125780
745.000000	7.047752
744.000000	6.977161
743.000000	6.903064
742.000000	6.832417
741.000000	6.763405
740.000000	6.694669
739.000000	6.630428
738.000000	6.561740
737.000000	6.488342
736.000000	6.423262
735.000000	6.356172
734.000000	6.293274
733.000000	6.232615
732.000000	6.166023
731.000000	6.103411
730.000000	6.044256
729.000000	5.987151
728.000000	5.923937
727.000000	5.866804
726.000000	5.810042
725.000000	5.760348
724.000000	5.700742
723.000000	5.648877
722.000000	5.593634
721.000000	5.541778
720.000000	5.492830
719.000000	5.447391
718.000000	5.394502
717.000000	5.346658
716.000000	5.303690
715.000000	5.259849
714.000000	5.221379
713.000000	5.179339
712.000000	5.135091
711.000000	5.097740
710.000000	5.062360
709.000000	5.026706
708.000000	4.993097
707.000000	4.959133
706.000000	4.928171
705.000000	4.898572
704.000000	4.869445
703.000000	4.843920
702.000000	4.819744
701.000000	4.793990
700.000000	4.774590
699.000000	4.751850
698.000000	4.734549
697.000000	4.717450
696.000000	4.701531
695.000000	4.686054
694.000000	4.676877
693.000000	4.666956
692.000000	4.655657
691.000000	4.650619
690.000000	4.641048
689.000000	4.641015
688.000000	4.640324
687.000000	4.642753
686.000000	4.643854
685.000000	4.647914
684.000000	4.653634
683.000000	4.663831
682.000000	4.674112
681.000000	4.688951
680.000000	4.704371
679.000000	4.718272
678.000000	4.739728
677.000000	4.760042
676.000000	4.783611
675.000000	4.807305
674.000000	4.834213
673.000000	4.864374
672.000000	4.895681
671.000000	4.930995
670.000000	4.967210
669.000000	5.006970
668.000000	5.046387
667.000000	5.092111
666.000000	5.135036
665.000000	5.181352
664.000000	5.231961
663.000000	5.283201
662.000000	5.338537
661.000000	5.397021
660.000000	5.457161
659.000000	5.519744
658.000000	5.583024
657.000000	5.651937
656.000000	5.718417
655.000000	5.790530
654.000000	5.861759
653.000000	5.939970
652.000000	6.018879
651.000000	6.097727
650.000000	6.181890
649.000000	6.271081
648.000000	6.363111
647.000000	6.451427
646.000000	6.545292
645.000000	6.637641
644.000000	6.737379
643.000000	6.838684
642.000000	6.942945
641.000000	7.048975
640.000000	7.155436
639.000000	7.268945
638.000000	7.383944
637.000000	7.500885
636.000000	7.618478
635.000000	7.739206
634.000000	7.857517
633.000000	7.981363
632.000000	8.110277
631.000000	8.241273
630.000000	8.376427
629.000000	8.514169
628.000000	8.653098
627.000000	8.793470
626.000000	8.935671
625.000000	9.084392
624.000000	9.231194
623.000000	9.377210
622.000000	9.524355
621.000000	9.679978
620.000000	9.836782
619.000000	9.998037
618.000000	10.165289
617.000000	10.325851
616.000000	10.491959
615.000000	10.659959
614.000000	10.826642
613.000000	10.995634
612.000000	11.172503
611.000000	11.351506
610.000000	11.529328
609.000000	11.713131
608.000000	11.902226
607.000000	12.085033
606.000000	12.275786
605.000000	12.458907
604.000000	12.647931
603.000000	12.840228
602.000000	13.035510
601.000000	13.234362
600.000000	13.437560
599.000000	13.643846
598.000000	13.845525
597.000000	14.043174
596.000000	14.250846
595.000000	14.452989
594.000000	14.659251
593.000000	14.871012
592.000000	15.085187
591.000000	15.299073
590.000000	15.514562
589.000000	15.737203
588.000000	15.956073
587.000000	16.175577
586.000000	16.390404
585.000000	16.608456
584.000000	16.826823
583.000000	17.044195
582.000000	17.270088
581.000000	17.502212
580.000000	17.734158
579.000000	17.959733
578.000000	18.191524
577.000000	18.417736
576.000000	18.644362
575.000000	18.878441
574.000000	19.103932
573.000000	19.338450
572.000000	19.571071
571.000000	19.811208
570.000000	20.045892
569.000000	20.276428
568.000000	20.512984
567.000000	20.748510
566.000000	20.982545
565.000000	21.218339
564.000000	21.445477
563.000000	21.676326
562.000000	21.920345
561.000000	22.163402
560.000000	22.407990
559.000000	22.643357
558.000000	22.878045
557.000000	23.117021
556.000000	23.353254
555.000000	23.581517
554.000000	23.812264
553.000000	24.050911
552.000000	24.288140
551.000000	24.528287
550.000000	24.764360
549.000000	24.990586
548.000000	25.220855
547.000000	25.449987
546.000000	25.681103
545.000000	25.907476
544.000000	26.131167
543.000000	26.359443
542.000000	26.579383
541.000000	26.803752
540.000000	27.024411
539.000000	27.249424
538.000000	27.477953
537.000000	27.692351
536.000000	27.908701
535.000000	28.122893
534.000000	28.332568
533.000000	28.551511
532.000000	28.760622
531.000000	28.966107
530.000000	29.182890
529.000000	29.394396
528.000000	29.601547
527.000000	29.797895
526.000000	29.991856
525.000000	30.185216
524.000000	30.382480
523.000000	30.581168
522.000000	30.764474
521.000000	30.953733
520.000000	31.136118
519.000000	31.314074
518.000000	31.501598
517.000000	31.677386
516.000000	31.849668
515.000000	32.016054
514.000000	32.176501
513.000000	32.346007
512.000000	32.516318
511.000000	32.663021
510.000000	32.812619
509.000000	32.968751
508.000000	33.116075
507.000000	33.253884
506.000000	33.386599
505.000000	33.524366
504.000000	33.653243
503.000000	33.781914
502.000000	33.903480
501.000000	34.021060
500.000000	34.144656
499.000000	34.253833
498.000000	34.369655
497.000000	34.486803
496.000000	34.566543
495.000000	34.670231
494.000000	34.770851
493.000000	34.862903
492.000000	34.948553
491.000000	35.033887
490.000000	35.116724
489.000000	35.193783
488.000000	35.263593
487.000000	35.325999
486.000000	35.384067
485.000000	35.440822
484.000000	35.485365
483.000000	35.531057
482.000000	35.561950
481.000000	35.584107
480.000000	35.617793
479.000000	35.639227
478.000000	35.640228
477.000000	35.628719
476.000000	35.627116
475.000000	35.618573
474.000000	35.608624
473.000000	35.589609
472.000000	35.551654
471.000000	35.511749
470.000000	35.458842
469.000000	35.397076
468.000000	35.336913
467.000000	35.273378
466.000000	35.189390
465.000000	35.103399
464.000000	35.019605
463.000000	34.919873
462.000000	34.815112
461.000000	34.698141
460.000000	34.564176
459.000000	34.436096
458.000000	34.289973
457.000000	34.125463
456.000000	33.969740
455.000000	33.795481
454.000000	33.603635
453.000000	33.398022
452.000000	33.195769
451.000000	32.971926
450.000000	32.742717
449.000000	32.496531
448.000000	32.236653
447.000000	31.974541
446.000000	31.701851
445.000000	31.424029
444.000000	31.110397
443.000000	30.788835
442.000000	30.454373
441.000000	30.115282
440.000000	29.769386
439.000000	29.390994
438.000000	28.998079
437.000000	28.617810
436.000000	28.213461
435.000000	27.791750
434.000000	27.361478
433.000000	26.903695
432.000000	26.436498
431.000000	25.956334
430.000000	25.452301
429.000000	24.943439
428.000000	24.420514
427.000000	23.875130
426.000000	23.336697
425.000000	22.779677
424.000000	22.209553
423.000000	21.607507
422.000000	21.013915
421.000000	20.383578
420.000000	19.746492
419.000000	19.091305
418.000000	18.437296
417.000000	17.780823
416.000000	17.124095
415.000000	16.451168
414.000000	15.776662
413.000000	15.097510
412.000000	14.402797
411.000000	13.706242
410.000000	13.009728
409.000000	12.331222
408.000000	11.658148
407.000000	11.007674
406.000000	10.371143
405.000000	9.751191
404.000000	9.139402
403.000000	8.559987
402.000000	8.007711
401.000000	7.486237
400.000000	6.993681
399.000000	6.554266
398.000000	6.169447
397.000000	5.836568
396.000000	5.559146
395.000000	5.343540
394.000000	5.192295
393.000000	5.113061
392.000000	5.116213
391.000000	5.202869
390.000000	5.364600
389.000000	5.626332
388.000000	5.976800
387.000000	6.410221
386.000000	6.945081
385.000000	7.555176
384.000000	8.261227
383.000000	9.059612
382.000000	9.965521
381.000000	10.966826
380.000000	12.023120
379.000000	13.158532
378.000000	14.854939
377.000000	16.231711
376.000000	17.475806
375.000000	18.776585
374.000000	20.081768
373.000000	21.459655
372.000000	22.843023
371.000000	24.239980
370.000000	25.619626
369.000000	26.999928
368.000000	28.331271
367.000000	29.643426
366.000000	30.986721
365.000000	32.177570
364.000000	33.349230
363.000000	34.434353
362.000000	35.425120
361.000000	36.358263
360.000000	37.155627
359.000000	37.916372
358.000000	38.575525
357.000000	39.142697
356.000000	39.610918
355.000000	39.938173
354.000000	40.209229
353.000000	40.370367
352.000000	40.378745
351.000000	40.267463
350.000000	40.098069
