PE UV       SUBTECH     SPECTRUM    ASCII       PEDS        4.00        
   -1
180627-8 bot alpha.Sample.asc
18/06/27
22:33:38.00
18/06/27
22:33:38.00
Analyst
34s15gmt test
350.000000
1
Lambda 950
950L1201053
PerkinElmer UV WinLab 6.0.4.0738 / 1.61.00 Lambda 900

0
0
3350/16 889.8/4
0
0
VIS
1
1
1
CommonBeamDepol,RBeamAtt,SBeamAtt,universal reflectance
0
0
0
0
Program
 
0
3350/0.28 889.8/0.28
0
0
0
 
 
 
0
 
889.8
150
889.8
Front
31
on
3350/S:100 3350/R:100
 
0
0
0
 
0
 
 
 
0
 
 
0
0
8.0
4.00
4.00
False
False
202L1112213
 
0
0


0
0
#HDR
-1
-1
#GR
nm
%R
1.0
0.0
880.000000
-1.000000
531
8
38.385102
4.519779
#DATA
880.000000	19.466331
879.000000	19.400203
878.000000	19.322726
877.000000	19.269310
876.000000	19.190917
875.000000	19.127816
874.000000	19.063171
873.000000	18.990643
872.000000	18.924276
871.000000	18.842007
870.000000	18.776486
869.000000	18.695791
868.000000	18.649998
867.000000	18.569815
866.000000	18.495020
865.000000	18.421305
864.000000	18.352109
863.000000	18.265256
862.000000	18.207999
861.000000	18.136232
860.000000	18.062022
859.000000	17.982338
858.000000	17.915413
857.000000	17.837870
856.000000	17.748890
855.000000	17.679585
854.000000	17.609610
853.000000	17.529159
852.000000	17.455533
851.000000	17.374371
850.000000	17.296772
849.000000	17.211616
848.000000	17.142754
847.000000	17.065013
846.000000	16.996815
845.000000	16.916127
844.000000	16.848183
843.000000	16.753042
842.000000	16.674173
841.000000	16.590827
840.000000	16.520466
839.000000	16.455377
838.000000	16.362147
837.000000	16.293650
836.000000	16.194582
835.000000	16.112588
834.000000	16.030017
833.000000	15.962596
832.000000	15.878098
831.000000	15.796152
830.000000	15.712993
829.000000	15.638295
828.000000	15.547690
827.000000	15.473340
826.000000	15.387451
825.000000	15.313366
824.000000	15.218065
823.000000	15.146572
822.000000	15.060378
821.000000	14.970334
820.000000	14.889668
819.000000	14.805555
818.000000	14.732828
817.000000	14.635100
816.000000	14.553938
815.000000	14.462553
814.000000	14.386823
813.000000	14.294903
812.000000	14.197791
811.000000	14.125196
810.000000	14.024783
809.000000	13.948351
808.000000	13.866511
807.000000	13.777577
806.000000	13.694174
805.000000	13.609735
804.000000	13.526809
803.000000	13.432324
802.000000	13.345147
801.000000	13.261246
800.000000	13.172170
799.000000	13.082674
798.000000	12.992402
797.000000	12.898621
796.000000	12.823930
795.000000	12.714912
794.000000	12.643320
793.000000	12.550995
792.000000	12.469774
791.000000	12.366081
790.000000	12.277307
789.000000	12.199378
788.000000	12.101407
787.000000	12.012261
786.000000	11.926305
785.000000	11.838621
784.000000	11.753431
783.000000	11.656874
782.000000	11.572687
781.000000	11.476711
780.000000	11.391559
779.000000	11.306138
778.000000	11.211112
777.000000	11.118465
776.000000	11.041427
775.000000	10.950180
774.000000	10.860012
773.000000	10.771979
772.000000	10.683010
771.000000	10.593766
770.000000	10.501100
769.000000	10.412960
768.000000	10.326190
767.000000	10.234690
766.000000	10.142022
765.000000	10.052877
764.000000	9.973618
763.000000	9.876064
762.000000	9.786356
761.000000	9.696456
760.000000	9.615302
759.000000	9.524723
758.000000	9.442093
757.000000	9.350069
756.000000	9.265133
755.000000	9.178435
754.000000	9.092884
753.000000	9.005350
752.000000	8.921161
751.000000	8.832757
750.000000	8.753787
749.000000	8.664372
748.000000	8.579635
747.000000	8.495250
746.000000	8.412357
745.000000	8.329128
744.000000	8.245346
743.000000	8.164730
742.000000	8.083686
741.000000	7.996585
740.000000	7.916432
739.000000	7.832537
738.000000	7.751366
737.000000	7.675970
736.000000	7.599911
735.000000	7.518533
734.000000	7.441202
733.000000	7.366268
732.000000	7.288354
731.000000	7.208128
730.000000	7.133100
729.000000	7.056985
728.000000	6.977600
727.000000	6.904885
726.000000	6.835331
725.000000	6.763239
724.000000	6.689456
723.000000	6.621288
722.000000	6.549295
721.000000	6.481291
720.000000	6.414444
719.000000	6.344677
718.000000	6.275606
717.000000	6.211901
716.000000	6.149368
715.000000	6.083983
714.000000	6.020442
713.000000	5.956530
712.000000	5.894341
711.000000	5.832890
710.000000	5.774350
709.000000	5.714508
708.000000	5.656632
707.000000	5.602807
706.000000	5.546209
705.000000	5.494637
704.000000	5.444140
703.000000	5.393986
702.000000	5.341673
701.000000	5.291309
700.000000	5.246691
699.000000	5.200020
698.000000	5.155568
697.000000	5.109890
696.000000	5.065550
695.000000	5.025423
694.000000	4.985832
693.000000	4.948359
692.000000	4.911912
691.000000	4.875528
690.000000	4.841086
689.000000	4.807498
688.000000	4.773239
687.000000	4.746344
686.000000	4.718182
685.000000	4.692287
684.000000	4.669225
683.000000	4.646306
682.000000	4.623404
681.000000	4.606791
680.000000	4.589699
679.000000	4.575074
678.000000	4.562673
677.000000	4.551070
676.000000	4.540630
675.000000	4.531099
674.000000	4.526439
673.000000	4.523193
672.000000	4.520216
671.000000	4.519779
670.000000	4.520340
669.000000	4.524594
668.000000	4.532412
667.000000	4.541924
666.000000	4.549102
665.000000	4.561592
664.000000	4.576218
663.000000	4.594601
662.000000	4.611850
661.000000	4.632177
660.000000	4.657669
659.000000	4.682873
658.000000	4.709198
657.000000	4.741725
656.000000	4.774092
655.000000	4.806715
654.000000	4.842516
653.000000	4.883194
652.000000	4.926423
651.000000	4.970576
650.000000	5.017767
649.000000	5.067564
648.000000	5.119720
647.000000	5.174818
646.000000	5.229239
645.000000	5.288112
644.000000	5.353856
643.000000	5.415081
642.000000	5.479003
641.000000	5.548796
640.000000	5.626144
639.000000	5.700182
638.000000	5.777560
637.000000	5.856172
636.000000	5.936746
635.000000	6.021595
634.000000	6.108504
633.000000	6.199935
632.000000	6.293480
631.000000	6.388071
630.000000	6.487296
629.000000	6.592724
628.000000	6.696594
627.000000	6.805928
626.000000	6.911622
625.000000	7.019586
624.000000	7.132250
623.000000	7.252515
622.000000	7.375144
621.000000	7.495254
620.000000	7.618683
619.000000	7.749098
618.000000	7.878717
617.000000	8.011251
616.000000	8.145046
615.000000	8.282677
614.000000	8.421943
613.000000	8.567519
612.000000	8.712948
611.000000	8.862012
610.000000	9.013610
609.000000	9.168395
608.000000	9.329058
607.000000	9.486988
606.000000	9.648464
605.000000	9.809952
604.000000	9.971824
603.000000	10.144248
602.000000	10.316943
601.000000	10.488583
600.000000	10.665003
599.000000	10.842194
598.000000	11.022551
597.000000	11.208771
596.000000	11.391656
595.000000	11.578108
594.000000	11.763819
593.000000	11.952240
592.000000	12.145755
591.000000	12.345841
590.000000	12.549304
589.000000	12.748606
588.000000	12.951524
587.000000	13.154200
586.000000	13.355311
585.000000	13.561575
584.000000	13.770076
583.000000	13.977498
582.000000	14.189600
581.000000	14.411282
580.000000	14.631327
579.000000	14.847315
578.000000	15.073397
577.000000	15.295057
576.000000	15.511042
575.000000	15.727363
574.000000	15.948732
573.000000	16.180544
572.000000	16.413675
571.000000	16.633982
570.000000	16.864788
569.000000	17.097940
568.000000	17.334364
567.000000	17.567789
566.000000	17.795391
565.000000	18.026103
564.000000	18.257474
563.000000	18.491171
562.000000	18.734256
561.000000	18.987888
560.000000	19.240062
559.000000	19.483514
558.000000	19.729960
557.000000	19.964936
556.000000	20.202349
555.000000	20.442781
554.000000	20.683489
553.000000	20.926843
552.000000	21.169155
551.000000	21.413543
550.000000	21.656731
549.000000	21.902477
548.000000	22.150081
547.000000	22.387091
546.000000	22.625571
545.000000	22.867739
544.000000	23.115132
543.000000	23.360942
542.000000	23.605252
541.000000	23.843810
540.000000	24.085644
539.000000	24.330516
538.000000	24.563049
537.000000	24.794482
536.000000	25.036640
535.000000	25.273005
534.000000	25.504926
533.000000	25.743288
532.000000	25.974876
531.000000	26.207147
530.000000	26.438985
529.000000	26.675139
528.000000	26.904607
527.000000	27.130549
526.000000	27.348717
525.000000	27.559774
524.000000	27.791029
523.000000	28.016240
522.000000	28.232621
521.000000	28.450897
520.000000	28.668409
519.000000	28.884475
518.000000	29.102551
517.000000	29.306103
516.000000	29.495010
515.000000	29.698975
514.000000	29.901288
513.000000	30.102020
512.000000	30.298540
511.000000	30.486238
510.000000	30.672729
509.000000	30.855919
508.000000	31.032944
507.000000	31.216939
506.000000	31.398642
505.000000	31.570444
504.000000	31.738220
503.000000	31.896552
502.000000	32.060825
501.000000	32.231720
500.000000	32.385029
499.000000	32.543561
498.000000	32.701975
497.000000	32.841036
496.000000	32.983197
495.000000	33.130633
494.000000	33.278907
493.000000	33.421261
492.000000	33.565884
491.000000	33.707531
490.000000	33.835219
489.000000	33.959470
488.000000	34.093443
487.000000	34.210663
486.000000	34.305932
485.000000	34.403597
484.000000	34.520283
483.000000	34.626481
482.000000	34.718100
481.000000	34.813888
480.000000	34.891520
479.000000	34.959066
478.000000	35.027350
477.000000	35.065207
476.000000	35.115742
475.000000	35.172095
474.000000	35.215752
473.000000	35.248913
472.000000	35.288494
471.000000	35.325396
470.000000	35.326240
469.000000	35.334923
468.000000	35.347801
467.000000	35.349652
466.000000	35.342348
465.000000	35.337897
464.000000	35.314851
463.000000	35.270157
462.000000	35.233765
461.000000	35.195417
460.000000	35.134078
459.000000	35.083596
458.000000	35.019075
457.000000	34.933890
456.000000	34.845781
455.000000	34.746338
454.000000	34.654476
453.000000	34.544154
452.000000	34.426251
451.000000	34.289400
450.000000	34.140826
449.000000	33.995606
448.000000	33.825242
447.000000	33.642942
446.000000	33.463217
445.000000	33.265987
444.000000	33.060018
443.000000	32.841929
442.000000	32.598531
441.000000	32.352950
440.000000	32.111408
439.000000	31.837902
438.000000	31.532897
437.000000	31.259816
436.000000	30.957599
435.000000	30.635675
434.000000	30.299268
433.000000	29.969247
432.000000	29.608694
431.000000	29.210967
430.000000	28.818059
429.000000	28.399441
428.000000	27.980598
427.000000	27.550834
426.000000	27.095693
425.000000	26.627165
424.000000	26.145486
423.000000	25.633370
422.000000	25.103671
421.000000	24.570518
420.000000	24.018379
419.000000	23.453793
418.000000	22.857166
417.000000	22.268396
416.000000	21.672157
415.000000	21.058602
414.000000	20.418922
413.000000	19.776511
412.000000	19.109993
411.000000	18.422115
410.000000	17.730569
409.000000	17.027176
408.000000	16.336190
407.000000	15.633465
406.000000	14.924396
405.000000	14.220047
404.000000	13.507274
403.000000	12.796464
402.000000	12.087580
401.000000	11.392759
400.000000	10.710557
399.000000	10.038319
398.000000	9.395276
397.000000	8.772636
396.000000	8.194592
395.000000	7.641557
394.000000	7.134164
393.000000	6.666265
392.000000	6.249056
391.000000	5.887508
390.000000	5.592942
389.000000	5.359149
388.000000	5.208292
387.000000	5.131611
386.000000	5.149376
385.000000	5.248812
384.000000	5.441081
383.000000	5.743714
382.000000	6.132746
381.000000	6.630156
380.000000	7.233142
379.000000	7.951796
378.000000	9.039173
377.000000	10.035336
376.000000	11.018738
375.000000	12.053156
374.000000	13.178508
373.000000	14.366929
372.000000	15.670890
371.000000	16.992367
370.000000	18.346153
369.000000	19.735833
368.000000	21.155602
367.000000	22.581148
366.000000	24.006096
365.000000	25.405203
364.000000	26.802209
363.000000	28.108270
362.000000	29.350898
361.000000	30.601981
360.000000	31.772887
359.000000	32.831551
358.000000	33.825605
357.000000	34.776663
356.000000	35.561613
355.000000	36.295624
354.000000	36.916377
353.000000	37.467938
352.000000	37.921668
351.000000	38.218982
350.000000	38.385102
