PE UV       SUBTECH     SPECTRUM    ASCII       PEDS        4.00        
   -1
180627-8 bot omega.Sample.asc
18/06/27
22:46:56.00
18/06/27
22:46:56.00
Analyst
34s15gmt test
350.000000
1
Lambda 950
950L1201053
PerkinElmer UV WinLab 6.0.4.0738 / 1.61.00 Lambda 900

0
0
3350/16 889.8/4
0
0
VIS
1
1
1
CommonBeamDepol,RBeamAtt,SBeamAtt,universal reflectance
0
0
0
0
Program
 
0
3350/0.28 889.8/0.28
0
0
0
 
 
 
0
 
889.8
150
889.8
Front
31
on
3350/S:100 3350/R:100
 
0
0
0
 
0
 
 
 
0
 
 
0
0
8.0
4.00
4.00
False
False
202L1112213
 
0
0


0
0
#HDR
-1
-1
#GR
nm
%R
1.0
0.0
880.000000
-1.000000
531
8
38.624099
4.547618
#DATA
880.000000	19.174506
879.000000	19.125954
878.000000	19.046807
877.000000	18.978219
876.000000	18.906296
875.000000	18.840642
874.000000	18.774081
873.000000	18.706139
872.000000	18.640242
871.000000	18.557214
870.000000	18.479789
869.000000	18.402420
868.000000	18.347249
867.000000	18.269975
866.000000	18.191453
865.000000	18.128408
864.000000	18.052364
863.000000	17.961092
862.000000	17.897048
861.000000	17.833359
860.000000	17.757334
859.000000	17.673803
858.000000	17.603071
857.000000	17.523265
856.000000	17.437450
855.000000	17.360106
854.000000	17.294677
853.000000	17.215815
852.000000	17.124816
851.000000	17.052999
850.000000	16.972557
849.000000	16.887201
848.000000	16.826601
847.000000	16.731478
846.000000	16.661507
845.000000	16.581094
844.000000	16.511661
843.000000	16.411832
842.000000	16.336613
841.000000	16.257176
840.000000	16.181699
839.000000	16.100975
838.000000	16.020339
837.000000	15.943917
836.000000	15.859143
835.000000	15.768875
834.000000	15.681750
833.000000	15.626773
832.000000	15.525223
831.000000	15.445049
830.000000	15.365408
829.000000	15.280063
828.000000	15.179666
827.000000	15.115921
826.000000	15.022165
825.000000	14.953516
824.000000	14.863528
823.000000	14.788410
822.000000	14.695122
821.000000	14.612966
820.000000	14.522173
819.000000	14.440496
818.000000	14.364767
817.000000	14.265090
816.000000	14.198174
815.000000	14.093383
814.000000	14.019041
813.000000	13.927023
812.000000	13.842953
811.000000	13.755404
810.000000	13.659537
809.000000	13.581746
808.000000	13.499738
807.000000	13.408173
806.000000	13.315547
805.000000	13.227799
804.000000	13.142580
803.000000	13.057825
802.000000	12.965904
801.000000	12.879962
800.000000	12.792320
799.000000	12.700742
798.000000	12.600780
797.000000	12.528636
796.000000	12.439025
795.000000	12.342108
794.000000	12.257886
793.000000	12.165615
792.000000	12.081694
791.000000	11.984855
790.000000	11.897367
789.000000	11.810230
788.000000	11.721238
787.000000	11.628942
786.000000	11.542901
785.000000	11.458056
784.000000	11.364508
783.000000	11.275795
782.000000	11.175725
781.000000	11.093216
780.000000	10.995183
779.000000	10.914903
778.000000	10.827447
777.000000	10.740269
776.000000	10.654444
775.000000	10.563213
774.000000	10.471338
773.000000	10.378767
772.000000	10.300416
771.000000	10.204403
770.000000	10.119073
769.000000	10.031092
768.000000	9.944798
767.000000	9.855924
766.000000	9.764789
765.000000	9.674321
764.000000	9.592223
763.000000	9.500885
762.000000	9.419499
761.000000	9.327138
760.000000	9.240150
759.000000	9.158252
758.000000	9.072083
757.000000	8.980466
756.000000	8.890448
755.000000	8.809081
754.000000	8.725771
753.000000	8.642201
752.000000	8.564706
751.000000	8.474792
750.000000	8.397067
749.000000	8.311714
748.000000	8.231220
747.000000	8.147245
746.000000	8.064358
745.000000	7.978959
744.000000	7.901174
743.000000	7.821874
742.000000	7.745129
741.000000	7.665101
740.000000	7.583802
739.000000	7.509204
738.000000	7.429196
737.000000	7.354405
736.000000	7.278741
735.000000	7.201950
734.000000	7.127287
733.000000	7.053493
732.000000	6.980034
731.000000	6.902737
730.000000	6.830973
729.000000	6.757681
728.000000	6.685180
727.000000	6.614821
726.000000	6.547887
725.000000	6.480103
724.000000	6.410744
723.000000	6.345666
722.000000	6.277335
721.000000	6.213811
720.000000	6.145809
719.000000	6.083305
718.000000	6.019306
717.000000	5.958014
716.000000	5.903515
715.000000	5.843757
714.000000	5.784253
713.000000	5.723329
712.000000	5.667857
711.000000	5.613539
710.000000	5.558520
709.000000	5.503155
708.000000	5.449924
707.000000	5.398214
706.000000	5.353131
705.000000	5.303909
704.000000	5.258165
703.000000	5.211313
702.000000	5.168860
701.000000	5.128435
700.000000	5.086245
699.000000	5.042942
698.000000	5.004526
697.000000	4.969608
696.000000	4.932690
695.000000	4.898277
694.000000	4.863878
693.000000	4.832750
692.000000	4.803987
691.000000	4.775823
690.000000	4.745742
689.000000	4.717390
688.000000	4.693401
687.000000	4.672625
686.000000	4.653136
685.000000	4.633948
684.000000	4.615629
683.000000	4.601450
682.000000	4.588651
681.000000	4.578209
680.000000	4.570920
679.000000	4.560218
678.000000	4.555244
677.000000	4.553804
676.000000	4.549129
675.000000	4.547618
674.000000	4.551163
673.000000	4.556010
672.000000	4.560810
671.000000	4.567639
670.000000	4.577643
669.000000	4.589451
668.000000	4.603226
667.000000	4.621561
666.000000	4.639151
665.000000	4.660505
664.000000	4.682150
663.000000	4.706900
662.000000	4.734739
661.000000	4.761956
660.000000	4.795877
659.000000	4.831015
658.000000	4.866605
657.000000	4.905836
656.000000	4.947318
655.000000	4.990467
654.000000	5.034663
653.000000	5.084104
652.000000	5.136430
651.000000	5.188779
650.000000	5.241029
649.000000	5.299672
648.000000	5.357385
647.000000	5.421851
646.000000	5.488415
645.000000	5.557388
644.000000	5.626636
643.000000	5.697995
642.000000	5.771443
641.000000	5.849834
640.000000	5.936106
639.000000	6.015478
638.000000	6.100674
637.000000	6.190438
636.000000	6.280380
635.000000	6.371405
634.000000	6.465181
633.000000	6.563593
632.000000	6.664649
631.000000	6.767530
630.000000	6.871602
629.000000	6.983621
628.000000	7.097209
627.000000	7.212790
626.000000	7.327203
625.000000	7.444638
624.000000	7.564136
623.000000	7.690023
622.000000	7.819733
621.000000	7.947013
620.000000	8.077173
619.000000	8.213953
618.000000	8.350899
617.000000	8.491950
616.000000	8.631634
615.000000	8.773632
614.000000	8.917766
613.000000	9.068576
612.000000	9.222883
611.000000	9.379201
610.000000	9.536836
609.000000	9.695199
608.000000	9.860202
607.000000	10.024435
606.000000	10.188958
605.000000	10.358256
604.000000	10.523388
603.000000	10.697828
602.000000	10.879502
601.000000	11.055014
600.000000	11.234326
599.000000	11.414752
598.000000	11.602355
597.000000	11.790983
596.000000	11.974065
595.000000	12.162318
594.000000	12.355204
593.000000	12.547711
592.000000	12.746028
591.000000	12.949969
590.000000	13.151160
589.000000	13.353092
588.000000	13.559882
587.000000	13.765596
586.000000	13.966801
585.000000	14.171467
584.000000	14.384631
583.000000	14.596223
582.000000	14.811183
581.000000	15.034499
580.000000	15.258682
579.000000	15.477485
578.000000	15.700910
577.000000	15.925742
576.000000	16.143715
575.000000	16.363457
574.000000	16.583493
573.000000	16.816142
572.000000	17.052503
571.000000	17.276938
570.000000	17.503318
569.000000	17.738074
568.000000	17.974061
567.000000	18.201003
566.000000	18.431349
565.000000	18.664522
564.000000	18.887195
563.000000	19.119485
562.000000	19.361513
561.000000	19.614909
560.000000	19.870025
559.000000	20.111936
558.000000	20.352888
557.000000	20.581871
556.000000	20.817789
555.000000	21.056490
554.000000	21.292504
553.000000	21.532385
552.000000	21.776480
551.000000	22.015546
550.000000	22.254050
549.000000	22.493587
548.000000	22.731026
547.000000	22.971883
546.000000	23.218835
545.000000	23.452121
544.000000	23.685311
543.000000	23.921881
542.000000	24.161520
541.000000	24.395864
540.000000	24.630016
539.000000	24.873539
538.000000	25.103751
537.000000	25.332896
536.000000	25.561609
535.000000	25.785709
534.000000	26.010987
533.000000	26.243918
532.000000	26.475789
531.000000	26.705465
530.000000	26.928372
529.000000	27.146958
528.000000	27.370030
527.000000	27.591819
526.000000	27.808297
525.000000	28.016228
524.000000	28.234521
523.000000	28.449362
522.000000	28.652937
521.000000	28.863437
520.000000	29.081371
519.000000	29.289114
518.000000	29.498209
517.000000	29.694185
516.000000	29.872895
515.000000	30.070259
514.000000	30.262144
513.000000	30.448630
512.000000	30.638392
511.000000	30.819920
510.000000	31.001333
509.000000	31.173764
508.000000	31.346722
507.000000	31.516683
506.000000	31.679059
505.000000	31.848874
504.000000	32.011172
503.000000	32.170830
502.000000	32.320496
501.000000	32.468335
500.000000	32.618606
499.000000	32.770115
498.000000	32.917537
497.000000	33.050989
496.000000	33.188309
495.000000	33.320384
494.000000	33.452417
493.000000	33.593403
492.000000	33.722457
491.000000	33.835726
490.000000	33.952389
489.000000	34.070545
488.000000	34.183590
487.000000	34.282023
486.000000	34.382764
485.000000	34.469411
484.000000	34.558256
483.000000	34.654566
482.000000	34.738494
481.000000	34.811450
480.000000	34.871707
479.000000	34.931146
478.000000	34.987547
477.000000	35.022922
476.000000	35.050082
475.000000	35.083482
474.000000	35.119711
473.000000	35.145090
472.000000	35.163122
471.000000	35.180468
470.000000	35.181121
469.000000	35.178599
468.000000	35.165107
467.000000	35.152527
466.000000	35.134999
465.000000	35.111013
464.000000	35.073174
463.000000	35.016903
462.000000	34.963397
461.000000	34.912364
460.000000	34.839436
459.000000	34.766889
458.000000	34.678262
457.000000	34.577048
456.000000	34.472827
455.000000	34.350218
454.000000	34.243459
453.000000	34.120834
452.000000	33.977390
451.000000	33.826818
450.000000	33.648450
449.000000	33.498111
448.000000	33.313249
447.000000	33.108768
446.000000	32.914938
445.000000	32.689711
444.000000	32.460895
443.000000	32.206919
442.000000	31.955693
441.000000	31.705627
440.000000	31.425065
439.000000	31.140708
438.000000	30.832864
437.000000	30.521229
436.000000	30.198188
435.000000	29.856911
434.000000	29.503752
433.000000	29.140817
432.000000	28.756506
431.000000	28.341853
430.000000	27.929184
429.000000	27.510769
428.000000	27.060436
427.000000	26.593289
426.000000	26.118169
425.000000	25.633331
424.000000	25.135638
423.000000	24.617582
422.000000	24.061646
421.000000	23.504876
420.000000	22.938807
419.000000	22.363689
418.000000	21.765467
417.000000	21.157445
416.000000	20.539757
415.000000	19.898719
414.000000	19.247807
413.000000	18.590056
412.000000	17.914504
411.000000	17.231762
410.000000	16.532174
409.000000	15.839308
408.000000	15.142916
407.000000	14.443810
406.000000	13.748485
405.000000	13.052905
404.000000	12.364172
403.000000	11.673230
402.000000	10.995798
401.000000	10.332054
400.000000	9.680853
399.000000	9.048710
398.000000	8.454552
397.000000	7.897741
396.000000	7.372317
395.000000	6.888189
394.000000	6.455222
393.000000	6.070000
392.000000	5.744076
391.000000	5.476996
390.000000	5.278348
389.000000	5.158554
388.000000	5.120219
387.000000	5.162684
386.000000	5.298940
385.000000	5.517708
384.000000	5.841492
383.000000	6.266539
382.000000	6.784849
381.000000	7.406280
380.000000	8.126164
379.000000	8.959167
378.000000	10.181657
377.000000	11.288002
376.000000	12.355548
375.000000	13.454990
374.000000	14.636576
373.000000	15.899073
372.000000	17.231647
371.000000	18.579012
370.000000	19.964313
369.000000	21.353721
368.000000	22.759061
367.000000	24.178389
366.000000	25.564575
365.000000	26.924186
364.000000	28.275200
363.000000	29.516779
362.000000	30.694775
361.000000	31.871821
360.000000	32.960602
359.000000	33.960309
358.000000	34.866263
357.000000	35.726841
356.000000	36.403175
355.000000	37.044078
354.000000	37.583963
353.000000	38.034007
352.000000	38.357368
351.000000	38.573390
350.000000	38.624099
