PE UV       SUBTECH     SPECTRUM    ASCII       PEDS        4.00        
   -1
180625-3 z top.Sample.asc
18/06/25
21:48:28.00
18/06/25
21:48:28.00
Analyst
34s15gmt
350.000000
1
Lambda 950
950L1201053
PerkinElmer UV WinLab 6.0.4.0738 / 1.61.00 Lambda 900

0
0
3350/16 889.8/4
0
0
VIS
1
1
1
CommonBeamDepol,RBeamAtt,SBeamAtt,universal reflectance
0
0
0
0
Program
 
0
3350/0.28 889.8/0.28
0
0
0
 
 
 
0
 
889.8
150
889.8
Front
31
on
3350/S:100 3350/R:100
 
0
0
0
 
0
 
 
 
0
 
 
0
0
8.0
4.00
4.00
False
False
202L1112213
 
0
0


0
0
#HDR
-1
-1
#GR
nm
%R
1.0
0.0
880.000000
-1.000000
531
8
39.160308
4.610663
#DATA
880.000000	20.920959
879.000000	20.855470
878.000000	20.779544
877.000000	20.717561
876.000000	20.648295
875.000000	20.573363
874.000000	20.508088
873.000000	20.444275
872.000000	20.373467
871.000000	20.308243
870.000000	20.221277
869.000000	20.153209
868.000000	20.085711
867.000000	20.001029
866.000000	19.930251
865.000000	19.874481
864.000000	19.800894
863.000000	19.730833
862.000000	19.645464
861.000000	19.576541
860.000000	19.499991
859.000000	19.417746
858.000000	19.340143
857.000000	19.280705
856.000000	19.204426
855.000000	19.118260
854.000000	19.046557
853.000000	18.978316
852.000000	18.896168
851.000000	18.824553
850.000000	18.746796
849.000000	18.655218
848.000000	18.593625
847.000000	18.500798
846.000000	18.423579
845.000000	18.344520
844.000000	18.265923
843.000000	18.183195
842.000000	18.103675
841.000000	18.037258
840.000000	17.928698
839.000000	17.870755
838.000000	17.781228
837.000000	17.715586
836.000000	17.619009
835.000000	17.531543
834.000000	17.450217
833.000000	17.368286
832.000000	17.289685
831.000000	17.210647
830.000000	17.128736
829.000000	17.030866
828.000000	16.949522
827.000000	16.877331
826.000000	16.800376
825.000000	16.703264
824.000000	16.629505
823.000000	16.530077
822.000000	16.450315
821.000000	16.362822
820.000000	16.282339
819.000000	16.183483
818.000000	16.104998
817.000000	16.003582
816.000000	15.932963
815.000000	15.833993
814.000000	15.747125
813.000000	15.666261
812.000000	15.575502
811.000000	15.491601
810.000000	15.392573
809.000000	15.305144
808.000000	15.204773
807.000000	15.128735
806.000000	15.045122
805.000000	14.953670
804.000000	14.857219
803.000000	14.770442
802.000000	14.670491
801.000000	14.600053
800.000000	14.483362
799.000000	14.394327
798.000000	14.327093
797.000000	14.228584
796.000000	14.126265
795.000000	14.034607
794.000000	13.935969
793.000000	13.839919
792.000000	13.759415
791.000000	13.653696
790.000000	13.571608
789.000000	13.480314
788.000000	13.380770
787.000000	13.290705
786.000000	13.200362
785.000000	13.106819
784.000000	13.008947
783.000000	12.916680
782.000000	12.818025
781.000000	12.729925
780.000000	12.630927
779.000000	12.532964
778.000000	12.441266
777.000000	12.350498
776.000000	12.250906
775.000000	12.152145
774.000000	12.060267
773.000000	11.975596
772.000000	11.874088
771.000000	11.781280
770.000000	11.677421
769.000000	11.589768
768.000000	11.485955
767.000000	11.396642
766.000000	11.302522
765.000000	11.211533
764.000000	11.110220
763.000000	11.017893
762.000000	10.927580
761.000000	10.822365
760.000000	10.739914
759.000000	10.636806
758.000000	10.542758
757.000000	10.448809
756.000000	10.358120
755.000000	10.266164
754.000000	10.170305
753.000000	10.077875
752.000000	9.986025
751.000000	9.890569
750.000000	9.796901
749.000000	9.702601
748.000000	9.612652
747.000000	9.516576
746.000000	9.427247
745.000000	9.335062
744.000000	9.245458
743.000000	9.151878
742.000000	9.059880
741.000000	8.968259
740.000000	8.876909
739.000000	8.795041
738.000000	8.701029
737.000000	8.608943
736.000000	8.520632
735.000000	8.438431
734.000000	8.344810
733.000000	8.261287
732.000000	8.175731
731.000000	8.088726
730.000000	8.000169
729.000000	7.916424
728.000000	7.828314
727.000000	7.744811
726.000000	7.662532
725.000000	7.585234
724.000000	7.498455
723.000000	7.419010
722.000000	7.335516
721.000000	7.250353
720.000000	7.176084
719.000000	7.097177
718.000000	7.018558
717.000000	6.943441
716.000000	6.865361
715.000000	6.789963
714.000000	6.716523
713.000000	6.642846
712.000000	6.567106
711.000000	6.499296
710.000000	6.425790
709.000000	6.353961
708.000000	6.286335
707.000000	6.217288
706.000000	6.151401
705.000000	6.086470
704.000000	6.019460
703.000000	5.960192
702.000000	5.898867
701.000000	5.834165
700.000000	5.772380
699.000000	5.713426
698.000000	5.655111
697.000000	5.601084
696.000000	5.544291
695.000000	5.487689
694.000000	5.435039
693.000000	5.385915
692.000000	5.335157
691.000000	5.288116
690.000000	5.233966
689.000000	5.187933
688.000000	5.147088
687.000000	5.104016
686.000000	5.064677
685.000000	5.025727
684.000000	4.986809
683.000000	4.951167
682.000000	4.915598
681.000000	4.883574
680.000000	4.854685
679.000000	4.822029
678.000000	4.794174
677.000000	4.768721
676.000000	4.745744
675.000000	4.723297
674.000000	4.705439
673.000000	4.686029
672.000000	4.667760
671.000000	4.655937
670.000000	4.641207
669.000000	4.631216
668.000000	4.624150
667.000000	4.618841
666.000000	4.614020
665.000000	4.610663
664.000000	4.613340
663.000000	4.615366
662.000000	4.618394
661.000000	4.628261
660.000000	4.635922
659.000000	4.648421
658.000000	4.660989
657.000000	4.679499
656.000000	4.696064
655.000000	4.717701
654.000000	4.742085
653.000000	4.767727
652.000000	4.796294
651.000000	4.825900
650.000000	4.857765
649.000000	4.895519
648.000000	4.935835
647.000000	4.971423
646.000000	5.014829
645.000000	5.061537
644.000000	5.112316
643.000000	5.162616
642.000000	5.216516
641.000000	5.270977
640.000000	5.331741
639.000000	5.394909
638.000000	5.458187
637.000000	5.525911
636.000000	5.595747
635.000000	5.665021
634.000000	5.742036
633.000000	5.819880
632.000000	5.901190
631.000000	5.985825
630.000000	6.073334
629.000000	6.164442
628.000000	6.258289
627.000000	6.352807
626.000000	6.448628
625.000000	6.553485
624.000000	6.653019
623.000000	6.756191
622.000000	6.861865
621.000000	6.976202
620.000000	7.095690
619.000000	7.214931
618.000000	7.336317
617.000000	7.458444
616.000000	7.583869
615.000000	7.711512
614.000000	7.844288
613.000000	7.975995
612.000000	8.114639
611.000000	8.257144
610.000000	8.400660
609.000000	8.548312
608.000000	8.699524
607.000000	8.851066
606.000000	9.007142
605.000000	9.160081
604.000000	9.315918
603.000000	9.478202
602.000000	9.644051
601.000000	9.812896
600.000000	9.986734
599.000000	10.161862
598.000000	10.339281
597.000000	10.515637
596.000000	10.698093
595.000000	10.878688
594.000000	11.063218
593.000000	11.247363
592.000000	11.439924
591.000000	11.637510
590.000000	11.834636
589.000000	12.036071
588.000000	12.235884
587.000000	12.440743
586.000000	12.643718
585.000000	12.844737
584.000000	13.053600
583.000000	13.265378
582.000000	13.478877
581.000000	13.695487
580.000000	13.914915
579.000000	14.134426
578.000000	14.356054
577.000000	14.579357
576.000000	14.811527
575.000000	15.037872
574.000000	15.261396
573.000000	15.490293
572.000000	15.719897
571.000000	15.962441
570.000000	16.197660
569.000000	16.432682
568.000000	16.675323
567.000000	16.916524
566.000000	17.156055
565.000000	17.393989
564.000000	17.634640
563.000000	17.876966
562.000000	18.124541
561.000000	18.386197
560.000000	18.650376
559.000000	18.900878
558.000000	19.155421
557.000000	19.410567
556.000000	19.661504
555.000000	19.915180
554.000000	20.170296
553.000000	20.425019
552.000000	20.686808
551.000000	20.942424
550.000000	21.201978
549.000000	21.468876
548.000000	21.727376
547.000000	21.983384
546.000000	22.241048
545.000000	22.495173
544.000000	22.745579
543.000000	23.005881
542.000000	23.263955
541.000000	23.515923
540.000000	23.770700
539.000000	24.026407
538.000000	24.283119
537.000000	24.542164
536.000000	24.799430
535.000000	25.053966
534.000000	25.313860
533.000000	25.575192
532.000000	25.827810
531.000000	26.078416
530.000000	26.333382
529.000000	26.586540
528.000000	26.834432
527.000000	27.081263
526.000000	27.336136
525.000000	27.581476
524.000000	27.818936
523.000000	28.069616
522.000000	28.311271
521.000000	28.545420
520.000000	28.787105
519.000000	29.021201
518.000000	29.260207
517.000000	29.496763
516.000000	29.726478
515.000000	29.949938
514.000000	30.168512
513.000000	30.387650
512.000000	30.619664
511.000000	30.836580
510.000000	31.049755
509.000000	31.257129
508.000000	31.462852
507.000000	31.676381
506.000000	31.876719
505.000000	32.072199
504.000000	32.265592
503.000000	32.449785
502.000000	32.638052
501.000000	32.832209
500.000000	33.015556
499.000000	33.207903
498.000000	33.399911
497.000000	33.564685
496.000000	33.728046
495.000000	33.907841
494.000000	34.081491
493.000000	34.251550
492.000000	34.414836
491.000000	34.583158
490.000000	34.738502
489.000000	34.887818
488.000000	35.045868
487.000000	35.197761
486.000000	35.332578
485.000000	35.457646
484.000000	35.599000
483.000000	35.739138
482.000000	35.858599
481.000000	35.957378
480.000000	36.068520
479.000000	36.189582
478.000000	36.288163
477.000000	36.367789
476.000000	36.437331
475.000000	36.516316
474.000000	36.605889
473.000000	36.677621
472.000000	36.719475
471.000000	36.779560
470.000000	36.831493
469.000000	36.864925
468.000000	36.901118
467.000000	36.920337
466.000000	36.928766
465.000000	36.943387
464.000000	36.956279
463.000000	36.958286
462.000000	36.956432
461.000000	36.938506
460.000000	36.907225
459.000000	36.885094
458.000000	36.848701
457.000000	36.797864
456.000000	36.745836
455.000000	36.672886
454.000000	36.590100
453.000000	36.510635
452.000000	36.434372
451.000000	36.326712
450.000000	36.209016
449.000000	36.099340
448.000000	35.971166
447.000000	35.822557
446.000000	35.665298
445.000000	35.523352
444.000000	35.344553
443.000000	35.128739
442.000000	34.931014
441.000000	34.718255
440.000000	34.490963
439.000000	34.252051
438.000000	34.002268
437.000000	33.756612
436.000000	33.480107
435.000000	33.184514
434.000000	32.884969
433.000000	32.579245
432.000000	32.243491
431.000000	31.903309
430.000000	31.536621
429.000000	31.149271
428.000000	30.758569
427.000000	30.350298
426.000000	29.919042
425.000000	29.471899
424.000000	29.017399
423.000000	28.535496
422.000000	28.045159
421.000000	27.524652
420.000000	26.992137
419.000000	26.431516
418.000000	25.867049
417.000000	25.284834
416.000000	24.687596
415.000000	24.082807
414.000000	23.455111
413.000000	22.798665
412.000000	22.116134
411.000000	21.418457
410.000000	20.709540
409.000000	19.994135
408.000000	19.254553
407.000000	18.513564
406.000000	17.767728
405.000000	17.024130
404.000000	16.251401
403.000000	15.466749
402.000000	14.689820
401.000000	13.899270
400.000000	13.118580
399.000000	12.352890
398.000000	11.585758
397.000000	10.841051
396.000000	10.119762
395.000000	9.432463
394.000000	8.776902
393.000000	8.142487
392.000000	7.553730
391.000000	7.017466
390.000000	6.527945
389.000000	6.114082
388.000000	5.765799
387.000000	5.492216
386.000000	5.316041
385.000000	5.227171
384.000000	5.226891
383.000000	5.334947
382.000000	5.560640
381.000000	5.900045
380.000000	6.342882
379.000000	6.913987
378.000000	7.882187
377.000000	8.824259
376.000000	9.694021
375.000000	10.707075
374.000000	11.779961
373.000000	12.976262
372.000000	14.257726
371.000000	15.614944
370.000000	17.019000
369.000000	18.476982
368.000000	19.958806
367.000000	21.467001
366.000000	23.031365
365.000000	24.510909
364.000000	25.996394
363.000000	27.440918
362.000000	28.847447
361.000000	30.164015
360.000000	31.415042
359.000000	32.635966
358.000000	33.774505
357.000000	34.801422
356.000000	35.755118
355.000000	36.564503
354.000000	37.295505
353.000000	37.963229
352.000000	38.462754
351.000000	38.857781
350.000000	39.160308
