PE UV       SUBTECH     SPECTRUM    ASCII       PEDS        4.00        
   -1
180625-4 z mid.Sample.asc
18/06/25
22:52:48.00
18/06/25
22:52:48.00
Analyst
34s15gmt
350.000000
1
Lambda 950
950L1201053
PerkinElmer UV WinLab 6.0.4.0738 / 1.61.00 Lambda 900

0
0
3350/16 889.8/4
0
0
VIS
1
1
1
CommonBeamDepol,RBeamAtt,SBeamAtt,universal reflectance
0
0
0
0
Program
 
0
3350/0.28 889.8/0.28
0
0
0
 
 
 
0
 
889.8
150
889.8
Front
31
on
3350/S:100 3350/R:100
 
0
0
0
 
0
 
 
 
0
 
 
0
0
8.0
4.00
4.00
False
False
202L1112213
 
0
0


0
0
#HDR
-1
-1
#GR
nm
%R
1.0
0.0
880.000000
-1.000000
531
8
41.566156
4.531437
#DATA
880.000000	19.235442
879.000000	19.157892
878.000000	19.067320
877.000000	18.997892
876.000000	18.948476
875.000000	18.855425
874.000000	18.786214
873.000000	18.695571
872.000000	18.631952
871.000000	18.547134
870.000000	18.472034
869.000000	18.396680
868.000000	18.304772
867.000000	18.225602
866.000000	18.154407
865.000000	18.077182
864.000000	18.001619
863.000000	17.917957
862.000000	17.829292
861.000000	17.743987
860.000000	17.683424
859.000000	17.584333
858.000000	17.510209
857.000000	17.419014
856.000000	17.351138
855.000000	17.253840
854.000000	17.180272
853.000000	17.101904
852.000000	17.013982
851.000000	16.925130
850.000000	16.848314
849.000000	16.753929
848.000000	16.661530
847.000000	16.596221
846.000000	16.502409
845.000000	16.427139
844.000000	16.334375
843.000000	16.250950
842.000000	16.164739
841.000000	16.077791
840.000000	15.984981
839.000000	15.885492
838.000000	15.811608
837.000000	15.727629
836.000000	15.645528
835.000000	15.551343
834.000000	15.466373
833.000000	15.372030
832.000000	15.299164
831.000000	15.196805
830.000000	15.117590
829.000000	15.016132
828.000000	14.942709
827.000000	14.851565
826.000000	14.741589
825.000000	14.655355
824.000000	14.577709
823.000000	14.480509
822.000000	14.392995
821.000000	14.299588
820.000000	14.210497
819.000000	14.115411
818.000000	14.028288
817.000000	13.941133
816.000000	13.839184
815.000000	13.756623
814.000000	13.671346
813.000000	13.575660
812.000000	13.469230
811.000000	13.384765
810.000000	13.291843
809.000000	13.202517
808.000000	13.108467
807.000000	13.021170
806.000000	12.930724
805.000000	12.838469
804.000000	12.730749
803.000000	12.655442
802.000000	12.552730
801.000000	12.456162
800.000000	12.353078
799.000000	12.272637
798.000000	12.177955
797.000000	12.080496
796.000000	11.988599
795.000000	11.900325
794.000000	11.800770
793.000000	11.708168
792.000000	11.614216
791.000000	11.525808
790.000000	11.422476
789.000000	11.336683
788.000000	11.228583
787.000000	11.146797
786.000000	11.057178
785.000000	10.964880
784.000000	10.863496
783.000000	10.768956
782.000000	10.679369
781.000000	10.584279
780.000000	10.494174
779.000000	10.398979
778.000000	10.302687
777.000000	10.214969
776.000000	10.119078
775.000000	10.028518
774.000000	9.936840
773.000000	9.848099
772.000000	9.753770
771.000000	9.663353
770.000000	9.574598
769.000000	9.477365
768.000000	9.390951
767.000000	9.295567
766.000000	9.204742
765.000000	9.126268
764.000000	9.032424
763.000000	8.942933
762.000000	8.855726
761.000000	8.767406
760.000000	8.675554
759.000000	8.590513
758.000000	8.501139
757.000000	8.414901
756.000000	8.327627
755.000000	8.240410
754.000000	8.157215
753.000000	8.071213
752.000000	7.986572
751.000000	7.906301
750.000000	7.821480
749.000000	7.736966
748.000000	7.659057
747.000000	7.575453
746.000000	7.490596
745.000000	7.412813
744.000000	7.328104
743.000000	7.249302
742.000000	7.170752
741.000000	7.097675
740.000000	7.026642
739.000000	6.946950
738.000000	6.865532
737.000000	6.793718
736.000000	6.718552
735.000000	6.644906
734.000000	6.574202
733.000000	6.502281
732.000000	6.435745
731.000000	6.363465
730.000000	6.293513
729.000000	6.221748
728.000000	6.157435
727.000000	6.091641
726.000000	6.030750
725.000000	5.964161
724.000000	5.903427
723.000000	5.838854
722.000000	5.781416
721.000000	5.719015
720.000000	5.666898
719.000000	5.607325
718.000000	5.551502
717.000000	5.497162
716.000000	5.442669
715.000000	5.389444
714.000000	5.342594
713.000000	5.288976
712.000000	5.239438
711.000000	5.193762
710.000000	5.147907
709.000000	5.103931
708.000000	5.062683
707.000000	5.020021
706.000000	4.979695
705.000000	4.945837
704.000000	4.905762
703.000000	4.870650
702.000000	4.841454
701.000000	4.806110
700.000000	4.773363
699.000000	4.751544
698.000000	4.720350
697.000000	4.696641
696.000000	4.670867
695.000000	4.648507
694.000000	4.630581
693.000000	4.612921
692.000000	4.595755
691.000000	4.580025
690.000000	4.569734
689.000000	4.555922
688.000000	4.545487
687.000000	4.540039
686.000000	4.536327
685.000000	4.531437
684.000000	4.533709
683.000000	4.531437
682.000000	4.534376
681.000000	4.541501
680.000000	4.550577
679.000000	4.559559
678.000000	4.570879
677.000000	4.583720
676.000000	4.599304
675.000000	4.622215
674.000000	4.641186
673.000000	4.663199
672.000000	4.686618
671.000000	4.713825
670.000000	4.744553
669.000000	4.776935
668.000000	4.809368
667.000000	4.847294
666.000000	4.889863
665.000000	4.929463
664.000000	4.970260
663.000000	5.017317
662.000000	5.068066
661.000000	5.118531
660.000000	5.174105
659.000000	5.231645
658.000000	5.291728
657.000000	5.351709
656.000000	5.417135
655.000000	5.482438
654.000000	5.550832
653.000000	5.622687
652.000000	5.698553
651.000000	5.775695
650.000000	5.851993
649.000000	5.933933
648.000000	6.021060
647.000000	6.112776
646.000000	6.198997
645.000000	6.289166
644.000000	6.385239
643.000000	6.479865
642.000000	6.581547
641.000000	6.687484
640.000000	6.793960
639.000000	6.906057
638.000000	7.015330
637.000000	7.131612
636.000000	7.246156
635.000000	7.365789
634.000000	7.484501
633.000000	7.610068
632.000000	7.737160
631.000000	7.864898
630.000000	8.002498
629.000000	8.137626
628.000000	8.273766
627.000000	8.413864
626.000000	8.555863
625.000000	8.703677
624.000000	8.850372
623.000000	8.998120
622.000000	9.151510
621.000000	9.311235
620.000000	9.468109
619.000000	9.627861
618.000000	9.797264
617.000000	9.962924
616.000000	10.126736
615.000000	10.295388
614.000000	10.467564
613.000000	10.643154
612.000000	10.820790
611.000000	11.005092
610.000000	11.190887
609.000000	11.374787
608.000000	11.565457
607.000000	11.754986
606.000000	11.942659
605.000000	12.135845
604.000000	12.332192
603.000000	12.530959
602.000000	12.732489
601.000000	12.938061
600.000000	13.145732
599.000000	13.348622
598.000000	13.559124
597.000000	13.770667
596.000000	13.978287
595.000000	14.190373
594.000000	14.406134
593.000000	14.624392
592.000000	14.843605
591.000000	15.056671
590.000000	15.279240
589.000000	15.508542
588.000000	15.738531
587.000000	15.965885
586.000000	16.196827
585.000000	16.429989
584.000000	16.653292
583.000000	16.883298
582.000000	17.115794
581.000000	17.351969
580.000000	17.584916
579.000000	17.823318
578.000000	18.067713
577.000000	18.310741
576.000000	18.542991
575.000000	18.776380
574.000000	19.024533
573.000000	19.264746
572.000000	19.502946
571.000000	19.745244
570.000000	19.992872
569.000000	20.238082
568.000000	20.489084
567.000000	20.738814
566.000000	20.976647
565.000000	21.220718
564.000000	21.460755
563.000000	21.700419
562.000000	21.947049
561.000000	22.210565
560.000000	22.483196
559.000000	22.735056
558.000000	22.979627
557.000000	23.224089
556.000000	23.462908
555.000000	23.710798
554.000000	23.958451
553.000000	24.204866
552.000000	24.447075
551.000000	24.695858
550.000000	24.943860
549.000000	25.185483
548.000000	25.442450
547.000000	25.677472
546.000000	25.911971
545.000000	26.152520
544.000000	26.389614
543.000000	26.631229
542.000000	26.873550
541.000000	27.110720
540.000000	27.350728
539.000000	27.594747
538.000000	27.829310
537.000000	28.062425
536.000000	28.289727
535.000000	28.513303
534.000000	28.738680
533.000000	28.960858
532.000000	29.181935
531.000000	29.405998
530.000000	29.641530
529.000000	29.863156
528.000000	30.068741
527.000000	30.291267
526.000000	30.503125
525.000000	30.716988
524.000000	30.935064
523.000000	31.132414
522.000000	31.334294
521.000000	31.537475
520.000000	31.741333
519.000000	31.940665
518.000000	32.129427
517.000000	32.317396
516.000000	32.498497
515.000000	32.686021
514.000000	32.869285
513.000000	33.039755
512.000000	33.215770
511.000000	33.388611
510.000000	33.555877
509.000000	33.717743
508.000000	33.877600
507.000000	34.035612
506.000000	34.176692
505.000000	34.323004
504.000000	34.466290
503.000000	34.596793
502.000000	34.745753
501.000000	34.890288
500.000000	35.014466
499.000000	35.146256
498.000000	35.279702
497.000000	35.410680
496.000000	35.520464
495.000000	35.629237
494.000000	35.744217
493.000000	35.859954
492.000000	35.961606
491.000000	36.057391
490.000000	36.154390
489.000000	36.238650
488.000000	36.323740
487.000000	36.403748
486.000000	36.474705
485.000000	36.546387
484.000000	36.616323
483.000000	36.670028
482.000000	36.709227
481.000000	36.756003
480.000000	36.788994
479.000000	36.817735
478.000000	36.831523
477.000000	36.843562
476.000000	36.860105
475.000000	36.858372
474.000000	36.834318
473.000000	36.819931
472.000000	36.818504
471.000000	36.802746
470.000000	36.752696
469.000000	36.708741
468.000000	36.675919
467.000000	36.630160
466.000000	36.552953
465.000000	36.472011
464.000000	36.404683
463.000000	36.319076
462.000000	36.225521
461.000000	36.130004
460.000000	35.999799
459.000000	35.869702
458.000000	35.734416
457.000000	35.588610
454.000000	35.095745
453.000000	34.917307
452.000000	34.722674
451.000000	34.502420
450.000000	34.281531
449.000000	34.061536
448.000000	33.819817
447.000000	33.561768
446.000000	33.275686
445.000000	33.003060
444.000000	32.714782
443.000000	32.402608
442.000000	32.073869
441.000000	31.729431
440.000000	31.379856
439.000000	31.013848
438.000000	30.638191
437.000000	30.236460
436.000000	29.835209
435.000000	29.413015
434.000000	28.976734
433.000000	28.522720
432.000000	28.057586
431.000000	27.565375
430.000000	27.054832
429.000000	26.555121
428.000000	26.031430
427.000000	25.468202
426.000000	24.898617
425.000000	24.323165
424.000000	23.730593
423.000000	23.127783
422.000000	22.488525
421.000000	21.846585
420.000000	21.174539
419.000000	20.506841
418.000000	19.821218
417.000000	19.132259
416.000000	18.420320
415.000000	17.717785
414.000000	17.000248
413.000000	16.268776
412.000000	15.529307
411.000000	14.782649
410.000000	14.048231
409.000000	13.291952
408.000000	12.544074
407.000000	11.836736
406.000000	11.131897
405.000000	10.434986
404.000000	9.754222
403.000000	9.095398
402.000000	8.465947
401.000000	7.858114
400.000000	7.293995
399.000000	6.764784
398.000000	6.288024
397.000000	5.879192
396.000000	5.535209
395.000000	5.246702
394.000000	5.032282
393.000000	4.886750
392.000000	4.826791
391.000000	4.863868
390.000000	4.993551
389.000000	5.222222
388.000000	5.534113
387.000000	5.956736
386.000000	6.484776
385.000000	7.121356
384.000000	7.851181
383.000000	8.692144
382.000000	9.620320
381.000000	10.671430
380.000000	11.797792
379.000000	13.023244
378.000000	14.820453
377.000000	16.307538
376.000000	17.591059
375.000000	18.987327
374.000000	20.442110
373.000000	21.865098
372.000000	23.384688
371.000000	24.870896
370.000000	26.335080
369.000000	27.797106
368.000000	29.224869
367.000000	30.603781
366.000000	32.014530
365.000000	33.283649
364.000000	34.510901
363.000000	35.649700
362.000000	36.639088
361.000000	37.574551
360.000000	38.419033
359.000000	39.231621
358.000000	39.876048
357.000000	40.437128
356.000000	40.883507
355.000000	41.222136
354.000000	41.418320
353.000000	41.566156
352.000000	41.546130
351.000000	41.458867
350.000000	41.196224
