PE UV       SUBTECH     SPECTRUM    ASCII       PEDS        4.00        
   -1
180627-8 mid omega.Sample.asc
18/06/27
22:42:27.00
18/06/27
22:42:27.00
Analyst
34s15gmt test
350.000000
1
Lambda 950
950L1201053
PerkinElmer UV WinLab 6.0.4.0738 / 1.61.00 Lambda 900

0
0
3350/16 889.8/4
0
0
VIS
1
1
1
CommonBeamDepol,RBeamAtt,SBeamAtt,universal reflectance
0
0
0
0
Program
 
0
3350/0.28 889.8/0.28
0
0
0
 
 
 
0
 
889.8
150
889.8
Front
31
on
3350/S:100 3350/R:100
 
0
0
0
 
0
 
 
 
0
 
 
0
0
8.0
4.00
4.00
False
False
202L1112213
 
0
0


0
0
#HDR
-1
-1
#GR
nm
%R
1.0
0.0
880.000000
-1.000000
531
8
38.698773
4.466011
#DATA
880.000000	19.492212
879.000000	19.433002
878.000000	19.360955
877.000000	19.266714
876.000000	19.195402
875.000000	19.121499
874.000000	19.056025
873.000000	18.991234
872.000000	18.920140
871.000000	18.846496
870.000000	18.768156
869.000000	18.684623
868.000000	18.648342
867.000000	18.563842
866.000000	18.480472
865.000000	18.413673
864.000000	18.346074
863.000000	18.261589
862.000000	18.196813
861.000000	18.124690
860.000000	18.042069
859.000000	17.954785
858.000000	17.891952
857.000000	17.813168
856.000000	17.732131
855.000000	17.658140
854.000000	17.584783
853.000000	17.496503
852.000000	17.413883
851.000000	17.347170
850.000000	17.255696
849.000000	17.182032
848.000000	17.106941
847.000000	17.029666
846.000000	16.934842
845.000000	16.870325
844.000000	16.807824
843.000000	16.701780
842.000000	16.627120
841.000000	16.554678
840.000000	16.467370
839.000000	16.392825
838.000000	16.308931
837.000000	16.220294
836.000000	16.149869
835.000000	16.058339
834.000000	15.984369
833.000000	15.909784
832.000000	15.811121
831.000000	15.735230
830.000000	15.651459
829.000000	15.560093
828.000000	15.472506
827.000000	15.406071
826.000000	15.319060
825.000000	15.232700
824.000000	15.136080
823.000000	15.063910
822.000000	14.982800
821.000000	14.896793
820.000000	14.804624
819.000000	14.724081
818.000000	14.633485
817.000000	14.546756
816.000000	14.463749
815.000000	14.373290
814.000000	14.283457
813.000000	14.194648
812.000000	14.116933
811.000000	14.024986
810.000000	13.933976
809.000000	13.847044
808.000000	13.768012
807.000000	13.673179
806.000000	13.582048
805.000000	13.492664
804.000000	13.414839
803.000000	13.319873
802.000000	13.228023
801.000000	13.144111
800.000000	13.063429
799.000000	12.956452
798.000000	12.868022
797.000000	12.786247
796.000000	12.695489
795.000000	12.601556
794.000000	12.516763
793.000000	12.429665
792.000000	12.337404
791.000000	12.239659
790.000000	12.149651
789.000000	12.057783
788.000000	11.971596
787.000000	11.877381
786.000000	11.786410
785.000000	11.694246
784.000000	11.608015
783.000000	11.513539
782.000000	11.420420
781.000000	11.333405
780.000000	11.244179
779.000000	11.149027
778.000000	11.057895
777.000000	10.970357
776.000000	10.880303
775.000000	10.793433
774.000000	10.708640
773.000000	10.610313
772.000000	10.521171
771.000000	10.427956
770.000000	10.344252
769.000000	10.248980
768.000000	10.159479
767.000000	10.067444
766.000000	9.973967
765.000000	9.881723
764.000000	9.799123
763.000000	9.708415
762.000000	9.620618
761.000000	9.529750
760.000000	9.441794
759.000000	9.352203
758.000000	9.268487
757.000000	9.175328
756.000000	9.089544
755.000000	9.003609
754.000000	8.918648
753.000000	8.831998
752.000000	8.742755
751.000000	8.658435
750.000000	8.575783
749.000000	8.490210
748.000000	8.401242
747.000000	8.314361
746.000000	8.232450
745.000000	8.147038
744.000000	8.065959
743.000000	7.985317
742.000000	7.899801
741.000000	7.816418
740.000000	7.737735
739.000000	7.653831
738.000000	7.573629
737.000000	7.496894
736.000000	7.420731
735.000000	7.341624
734.000000	7.266217
733.000000	7.188973
732.000000	7.107437
731.000000	7.027317
730.000000	6.957418
729.000000	6.880966
728.000000	6.802172
727.000000	6.729897
726.000000	6.658018
725.000000	6.586242
724.000000	6.517406
723.000000	6.447005
722.000000	6.376343
721.000000	6.308296
720.000000	6.239136
719.000000	6.170092
718.000000	6.104740
717.000000	6.039752
716.000000	5.978079
715.000000	5.918404
714.000000	5.854087
713.000000	5.790764
712.000000	5.729750
711.000000	5.674021
710.000000	5.614320
709.000000	5.555681
708.000000	5.501378
707.000000	5.447356
706.000000	5.396380
705.000000	5.344134
704.000000	5.294183
703.000000	5.244483
702.000000	5.196672
701.000000	5.150667
700.000000	5.105981
699.000000	5.061485
698.000000	5.017723
697.000000	4.974125
696.000000	4.935128
695.000000	4.895958
694.000000	4.859302
693.000000	4.825558
692.000000	4.793225
691.000000	4.760602
690.000000	4.727197
689.000000	4.695471
688.000000	4.667383
687.000000	4.641855
686.000000	4.616128
685.000000	4.597293
684.000000	4.577244
683.000000	4.556119
682.000000	4.537383
681.000000	4.521937
680.000000	4.509351
679.000000	4.497111
678.000000	4.486602
677.000000	4.480980
676.000000	4.473231
675.000000	4.467340
674.000000	4.466531
673.000000	4.466062
672.000000	4.466011
671.000000	4.472394
670.000000	4.478314
669.000000	4.486726
668.000000	4.496440
667.000000	4.508439
666.000000	4.523883
665.000000	4.540299
664.000000	4.558256
663.000000	4.578899
662.000000	4.601857
661.000000	4.628549
660.000000	4.658620
659.000000	4.688525
658.000000	4.720203
657.000000	4.755827
656.000000	4.792956
655.000000	4.832124
654.000000	4.873400
653.000000	4.918068
652.000000	4.967139
651.000000	5.016704
650.000000	5.067645
649.000000	5.123522
648.000000	5.178764
647.000000	5.238332
646.000000	5.300151
645.000000	5.365346
644.000000	5.434499
643.000000	5.502081
642.000000	5.570588
641.000000	5.647832
640.000000	5.728432
639.000000	5.806869
638.000000	5.887826
637.000000	5.973889
636.000000	6.061557
635.000000	6.152833
634.000000	6.244835
633.000000	6.341894
632.000000	6.440482
631.000000	6.539998
630.000000	6.644642
629.000000	6.754341
628.000000	6.865186
627.000000	6.979011
626.000000	7.089507
625.000000	7.204290
624.000000	7.323742
623.000000	7.446996
622.000000	7.572680
621.000000	7.698462
620.000000	7.828812
619.000000	7.965895
618.000000	8.101085
617.000000	8.238473
616.000000	8.378642
615.000000	8.522724
614.000000	8.666155
613.000000	8.816286
612.000000	8.970811
611.000000	9.127742
610.000000	9.283106
609.000000	9.444070
608.000000	9.605023
607.000000	9.767538
606.000000	9.935680
605.000000	10.101134
604.000000	10.267860
603.000000	10.446586
602.000000	10.625272
601.000000	10.801892
600.000000	10.983260
599.000000	11.165536
598.000000	11.353432
597.000000	11.540900
596.000000	11.727059
595.000000	11.914616
594.000000	12.108734
593.000000	12.303661
592.000000	12.503478
591.000000	12.710748
590.000000	12.915243
589.000000	13.119151
588.000000	13.325028
587.000000	13.530821
586.000000	13.740299
585.000000	13.953956
584.000000	14.163808
583.000000	14.374531
582.000000	14.590631
581.000000	14.814515
580.000000	15.035979
579.000000	15.255562
578.000000	15.482009
577.000000	15.711557
576.000000	15.934203
575.000000	16.155262
574.000000	16.372905
573.000000	16.605315
572.000000	16.844299
571.000000	17.072375
570.000000	17.305966
569.000000	17.538310
568.000000	17.776843
567.000000	18.016545
566.000000	18.251095
565.000000	18.484447
564.000000	18.717514
563.000000	18.956889
562.000000	19.205299
561.000000	19.459626
560.000000	19.707285
559.000000	19.954530
558.000000	20.202846
557.000000	20.441349
556.000000	20.680369
555.000000	20.922171
554.000000	21.164062
553.000000	21.411565
552.000000	21.660451
551.000000	21.906551
550.000000	22.153361
549.000000	22.395541
548.000000	22.634955
547.000000	22.878560
546.000000	23.133134
545.000000	23.380711
544.000000	23.618484
543.000000	23.858723
542.000000	24.109451
541.000000	24.355927
540.000000	24.588745
539.000000	24.830196
538.000000	25.073339
537.000000	25.306350
536.000000	25.540801
535.000000	25.770341
534.000000	26.003845
533.000000	26.249428
532.000000	26.489477
531.000000	26.718611
530.000000	26.945216
529.000000	27.182959
528.000000	27.410643
527.000000	27.634083
526.000000	27.856093
525.000000	28.068751
524.000000	28.303329
523.000000	28.524756
522.000000	28.737437
521.000000	28.955537
520.000000	29.168385
519.000000	29.384505
518.000000	29.603880
517.000000	29.803123
516.000000	29.989775
515.000000	30.196750
514.000000	30.394092
513.000000	30.586062
512.000000	30.783066
511.000000	30.973722
510.000000	31.160770
509.000000	31.339507
508.000000	31.523353
507.000000	31.699974
506.000000	31.873179
505.000000	32.047247
504.000000	32.210414
503.000000	32.373349
502.000000	32.531763
501.000000	32.688570
500.000000	32.845910
499.000000	33.005326
498.000000	33.158834
497.000000	33.295157
496.000000	33.433440
495.000000	33.585379
494.000000	33.730811
493.000000	33.865032
492.000000	34.001302
491.000000	34.129883
490.000000	34.256346
489.000000	34.379389
488.000000	34.500823
487.000000	34.611293
486.000000	34.713183
485.000000	34.808230
484.000000	34.901475
483.000000	34.996261
482.000000	35.087441
481.000000	35.174876
480.000000	35.245338
479.000000	35.305743
478.000000	35.358636
477.000000	35.406232
476.000000	35.459510
475.000000	35.495242
474.000000	35.526836
473.000000	35.557642
472.000000	35.587465
471.000000	35.610988
470.000000	35.612277
469.000000	35.610271
468.000000	35.607820
467.000000	35.599571
466.000000	35.577173
465.000000	35.552694
464.000000	35.527571
463.000000	35.486530
462.000000	35.444481
461.000000	35.396621
460.000000	35.324957
459.000000	35.264165
458.000000	35.176466
457.000000	35.082509
456.000000	34.981494
455.000000	34.864399
454.000000	34.765905
453.000000	34.649591
452.000000	34.515927
451.000000	34.366335
450.000000	34.213377
449.000000	34.050971
448.000000	33.869868
447.000000	33.673061
446.000000	33.485400
445.000000	33.268672
444.000000	33.044319
443.000000	32.796213
442.000000	32.536772
441.000000	32.276438
440.000000	32.010283
439.000000	31.736371
438.000000	31.424852
437.000000	31.117999
436.000000	30.798493
435.000000	30.471006
434.000000	30.114783
433.000000	29.776836
432.000000	29.394497
431.000000	28.965793
430.000000	28.546546
429.000000	28.126655
428.000000	27.688667
427.000000	27.238120
426.000000	26.763097
425.000000	26.271255
424.000000	25.768981
423.000000	25.236235
422.000000	24.693106
421.000000	24.139638
420.000000	23.568255
419.000000	22.975519
418.000000	22.362036
417.000000	21.762204
416.000000	21.145161
415.000000	20.509745
414.000000	19.848124
413.000000	19.181249
412.000000	18.508825
411.000000	17.821045
410.000000	17.107485
409.000000	16.390798
408.000000	15.689238
407.000000	14.980894
406.000000	14.264237
405.000000	13.547022
404.000000	12.834304
403.000000	12.131570
402.000000	11.434999
401.000000	10.738474
400.000000	10.056823
399.000000	9.405683
398.000000	8.777511
397.000000	8.187161
396.000000	7.635926
395.000000	7.115559
394.000000	6.649454
393.000000	6.231211
392.000000	5.863143
391.000000	5.562392
390.000000	5.328636
389.000000	5.170127
388.000000	5.094388
387.000000	5.101845
386.000000	5.203757
385.000000	5.392207
384.000000	5.684370
383.000000	6.081121
382.000000	6.570206
381.000000	7.165960
380.000000	7.869633
379.000000	8.674817
378.000000	9.905729
377.000000	11.005659
376.000000	12.070363
375.000000	13.180368
374.000000	14.378925
373.000000	15.627672
372.000000	16.938017
371.000000	18.330910
370.000000	19.734020
369.000000	21.146697
368.000000	22.553611
367.000000	24.006395
366.000000	25.418316
365.000000	26.801294
364.000000	28.166706
363.000000	29.453927
362.000000	30.640923
361.000000	31.832180
360.000000	32.931250
359.000000	33.931603
358.000000	34.840967
357.000000	35.721077
356.000000	36.421659
355.000000	37.079489
354.000000	37.626618
353.000000	38.068883
352.000000	38.424101
351.000000	38.608050
350.000000	38.698773
