PE UV       SUBTECH     SPECTRUM    ASCII       PEDS        4.00        
   -1
180625-4 z bot.Sample.asc
18/06/25
22:57:06.00
18/06/25
22:57:06.00
Analyst
34s15gmt
350.000000
1
Lambda 950
950L1201053
PerkinElmer UV WinLab 6.0.4.0738 / 1.61.00 Lambda 900

0
0
3350/16 889.8/4
0
0
VIS
1
1
1
CommonBeamDepol,RBeamAtt,SBeamAtt,universal reflectance
0
0
0
0
Program
 
0
3350/0.28 889.8/0.28
0
0
0
 
 
 
0
 
889.8
150
889.8
Front
31
on
3350/S:100 3350/R:100
 
0
0
0
 
0
 
 
 
0
 
 
0
0
8.0
4.00
4.00
False
False
202L1112213
 
0
0


0
0
#HDR
-1
-1
#GR
nm
%R
1.0
0.0
880.000000
-1.000000
531
8
41.315814
4.524052
#DATA
880.000000	18.412816
879.000000	18.347059
878.000000	18.265039
877.000000	18.199926
876.000000	18.113266
875.000000	18.036900
874.000000	17.962019
873.000000	17.875340
872.000000	17.815250
871.000000	17.719837
870.000000	17.661532
869.000000	17.579193
868.000000	17.484048
867.000000	17.410698
866.000000	17.327157
865.000000	17.255476
864.000000	17.189651
863.000000	17.099668
862.000000	16.996081
861.000000	16.921222
860.000000	16.847343
859.000000	16.756293
858.000000	16.682910
857.000000	16.596946
856.000000	16.514533
855.000000	16.429933
854.000000	16.349415
853.000000	16.276494
852.000000	16.181054
851.000000	16.097695
850.000000	16.012574
849.000000	15.934049
848.000000	15.847446
847.000000	15.762161
846.000000	15.661791
845.000000	15.592346
844.000000	15.499993
843.000000	15.418627
842.000000	15.325498
841.000000	15.241239
840.000000	15.160715
839.000000	15.072118
838.000000	14.980447
837.000000	14.903417
836.000000	14.816308
835.000000	14.731235
834.000000	14.640304
833.000000	14.554486
832.000000	14.467185
831.000000	14.363735
830.000000	14.285519
829.000000	14.199886
828.000000	14.115980
827.000000	14.031356
826.000000	13.927668
825.000000	13.846743
824.000000	13.759315
823.000000	13.674134
822.000000	13.571694
821.000000	13.480166
820.000000	13.385633
819.000000	13.300396
818.000000	13.206923
817.000000	13.125968
816.000000	13.026601
815.000000	12.949637
814.000000	12.848913
813.000000	12.762945
812.000000	12.670879
811.000000	12.584101
810.000000	12.498469
809.000000	12.395160
808.000000	12.307690
807.000000	12.216450
806.000000	12.125417
805.000000	12.032146
804.000000	11.937468
803.000000	11.850702
802.000000	11.752175
801.000000	11.667130
800.000000	11.568520
799.000000	11.483878
798.000000	11.400348
797.000000	11.297356
796.000000	11.211624
795.000000	11.122080
794.000000	11.024748
793.000000	10.937294
792.000000	10.839681
791.000000	10.756148
790.000000	10.660196
789.000000	10.570626
788.000000	10.466682
787.000000	10.384081
786.000000	10.298117
785.000000	10.219320
784.000000	10.119183
783.000000	10.029519
782.000000	9.938380
781.000000	9.854294
780.000000	9.762234
779.000000	9.666181
778.000000	9.572461
777.000000	9.489308
776.000000	9.397930
775.000000	9.314284
774.000000	9.229278
773.000000	9.141403
772.000000	9.056703
771.000000	8.967240
770.000000	8.880744
769.000000	8.788830
768.000000	8.700249
767.000000	8.614424
766.000000	8.529246
765.000000	8.445395
764.000000	8.361335
763.000000	8.280989
762.000000	8.195674
761.000000	8.106316
760.000000	8.023141
759.000000	7.945211
758.000000	7.858127
757.000000	7.779803
756.000000	7.697022
755.000000	7.617852
754.000000	7.540604
753.000000	7.465328
752.000000	7.387761
751.000000	7.308390
750.000000	7.228591
749.000000	7.149036
748.000000	7.074288
747.000000	7.000111
746.000000	6.926427
745.000000	6.851322
744.000000	6.775219
743.000000	6.705614
742.000000	6.635092
741.000000	6.572051
740.000000	6.495819
739.000000	6.429282
738.000000	6.356987
737.000000	6.286753
736.000000	6.222029
735.000000	6.161466
734.000000	6.094934
733.000000	6.030903
732.000000	5.968168
731.000000	5.905595
730.000000	5.847420
729.000000	5.785765
728.000000	5.727969
727.000000	5.667982
726.000000	5.614711
725.000000	5.562773
724.000000	5.507241
723.000000	5.452284
722.000000	5.402193
721.000000	5.349352
720.000000	5.303159
719.000000	5.251828
718.000000	5.205923
717.000000	5.162485
716.000000	5.118660
715.000000	5.074899
714.000000	5.038215
713.000000	4.996069
712.000000	4.953237
711.000000	4.920481
710.000000	4.884426
709.000000	4.850186
708.000000	4.816568
707.000000	4.787280
706.000000	4.756718
705.000000	4.732873
704.000000	4.704421
703.000000	4.679464
702.000000	4.661393
701.000000	4.637769
700.000000	4.617211
699.000000	4.602084
698.000000	4.584330
697.000000	4.571041
696.000000	4.556994
695.000000	4.547594
694.000000	4.542925
693.000000	4.534276
692.000000	4.528659
691.000000	4.526176
690.000000	4.524052
689.000000	4.524654
688.000000	4.528425
687.000000	4.531893
686.000000	4.540548
685.000000	4.550169
684.000000	4.563385
683.000000	4.575442
682.000000	4.590625
681.000000	4.605713
680.000000	4.626519
679.000000	4.648762
678.000000	4.672624
677.000000	4.698642
676.000000	4.727255
675.000000	4.759746
674.000000	4.792318
673.000000	4.828482
672.000000	4.862829
671.000000	4.903292
670.000000	4.947787
669.000000	4.991826
668.000000	5.038958
667.000000	5.090602
666.000000	5.141614
665.000000	5.193849
664.000000	5.249388
663.000000	5.306526
662.000000	5.369987
661.000000	5.432472
660.000000	5.500992
659.000000	5.570252
658.000000	5.643593
657.000000	5.717526
656.000000	5.791404
655.000000	5.869736
654.000000	5.949591
653.000000	6.032499
652.000000	6.120853
651.000000	6.209170
650.000000	6.298861
649.000000	6.395892
648.000000	6.494273
647.000000	6.595467
646.000000	6.693215
645.000000	6.796481
644.000000	6.900636
643.000000	7.008325
642.000000	7.121498
641.000000	7.241188
640.000000	7.361419
639.000000	7.481621
638.000000	7.601158
637.000000	7.727070
636.000000	7.852154
635.000000	7.981721
634.000000	8.112558
633.000000	8.245875
632.000000	8.383926
631.000000	8.524605
630.000000	8.670213
629.000000	8.815364
628.000000	8.961909
627.000000	9.111742
626.000000	9.262129
625.000000	9.415304
624.000000	9.571463
623.000000	9.724037
622.000000	9.884605
621.000000	10.055197
620.000000	10.221881
619.000000	10.391122
618.000000	10.564427
617.000000	10.737719
616.000000	10.908012
615.000000	11.083676
614.000000	11.264895
613.000000	11.446880
612.000000	11.634071
611.000000	11.822672
610.000000	12.013980
609.000000	12.204276
608.000000	12.397490
607.000000	12.593539
606.000000	12.788389
605.000000	12.988387
604.000000	13.183899
603.000000	13.386025
602.000000	13.590123
601.000000	13.798753
600.000000	14.008224
599.000000	14.214373
598.000000	14.422427
597.000000	14.640071
596.000000	14.857852
595.000000	15.070752
594.000000	15.285705
593.000000	15.502398
592.000000	15.720801
591.000000	15.939699
590.000000	16.169124
589.000000	16.395384
588.000000	16.620847
587.000000	16.849661
586.000000	17.077518
585.000000	17.302774
584.000000	17.531015
583.000000	17.767865
582.000000	17.995769
581.000000	18.223478
580.000000	18.456720
579.000000	18.694170
578.000000	18.932143
577.000000	19.171505
576.000000	19.404871
575.000000	19.640333
574.000000	19.882472
573.000000	20.117187
572.000000	20.349288
571.000000	20.586811
570.000000	20.832168
569.000000	21.073795
568.000000	21.309905
567.000000	21.559699
566.000000	21.803437
565.000000	22.038264
564.000000	22.273486
563.000000	22.505310
562.000000	22.743201
561.000000	23.000778
560.000000	23.260839
559.000000	23.501557
558.000000	23.743739
557.000000	23.983027
556.000000	24.217946
555.000000	24.453469
554.000000	24.681183
553.000000	24.919582
552.000000	25.159508
551.000000	25.401170
550.000000	25.643296
549.000000	25.877282
548.000000	26.116672
547.000000	26.341997
546.000000	26.567397
545.000000	26.794102
544.000000	27.021978
543.000000	27.252385
542.000000	27.479578
541.000000	27.702128
540.000000	27.923414
539.000000	28.150763
538.000000	28.378178
537.000000	28.612408
536.000000	28.831185
535.000000	29.032768
534.000000	29.241445
533.000000	29.454508
532.000000	29.665242
531.000000	29.873703
530.000000	30.085337
529.000000	30.294303
528.000000	30.490553
527.000000	30.697664
526.000000	30.898200
525.000000	31.096146
524.000000	31.291729
523.000000	31.468570
522.000000	31.654097
521.000000	31.837955
520.000000	32.031608
519.000000	32.221091
518.000000	32.390458
517.000000	32.562531
516.000000	32.737907
515.000000	32.907351
514.000000	33.073904
513.000000	33.227089
512.000000	33.377627
511.000000	33.530097
510.000000	33.681248
509.000000	33.823198
508.000000	33.964095
507.000000	34.105910
506.000000	34.226293
505.000000	34.357991
504.000000	34.489284
503.000000	34.596494
502.000000	34.730601
501.000000	34.855280
500.000000	34.950924
499.000000	35.068637
498.000000	35.189308
497.000000	35.289992
496.000000	35.386608
495.000000	35.474571
494.000000	35.550793
493.000000	35.649370
492.000000	35.737189
491.000000	35.806497
490.000000	35.880982
489.000000	35.941701
488.000000	35.998995
487.000000	36.044506
486.000000	36.105279
485.000000	36.156261
484.000000	36.195748
483.000000	36.227438
482.000000	36.238466
481.000000	36.262610
480.000000	36.276637
479.000000	36.281889
478.000000	36.290636
477.000000	36.279201
476.000000	36.270498
475.000000	36.242909
474.000000	36.205716
473.000000	36.158012
472.000000	36.115687
471.000000	36.068081
470.000000	36.002119
469.000000	35.932985
468.000000	35.860233
467.000000	35.785533
466.000000	35.684634
465.000000	35.592268
464.000000	35.507920
463.000000	35.377556
462.000000	35.253388
461.000000	35.124568
460.000000	34.978580
459.000000	34.817520
458.000000	34.654734
457.000000	34.485040
454.000000	33.896468
453.000000	33.683811
452.000000	33.451375
451.000000	33.209716
450.000000	32.964200
449.000000	32.708092
448.000000	32.429273
447.000000	32.145515
446.000000	31.842939
445.000000	31.524940
444.000000	31.190423
443.000000	30.837946
442.000000	30.487228
441.000000	30.117657
440.000000	29.733434
439.000000	29.332475
438.000000	28.913920
437.000000	28.484648
436.000000	28.048062
435.000000	27.590380
434.000000	27.132480
433.000000	26.648561
432.000000	26.145526
431.000000	25.639922
430.000000	25.106216
429.000000	24.573235
428.000000	24.021092
427.000000	23.451950
426.000000	22.860080
425.000000	22.262450
424.000000	21.638747
423.000000	21.013255
422.000000	20.370988
421.000000	19.714912
420.000000	19.052429
419.000000	18.374052
418.000000	17.685660
417.000000	17.006329
416.000000	16.301117
415.000000	15.610927
414.000000	14.911404
413.000000	14.197525
412.000000	13.491663
411.000000	12.780375
410.000000	12.080646
409.000000	11.377561
408.000000	10.693323
407.000000	10.051989
406.000000	9.415665
405.000000	8.800937
404.000000	8.207086
403.000000	7.650303
402.000000	7.121795
401.000000	6.637359
400.000000	6.201451
399.000000	5.805440
398.000000	5.470113
397.000000	5.206042
396.000000	5.014938
395.000000	4.885994
394.000000	4.831366
393.000000	4.868804
392.000000	4.986663
391.000000	5.194232
390.000000	5.494914
389.000000	5.893556
388.000000	6.384859
387.000000	6.965974
386.000000	7.647564
385.000000	8.425883
384.000000	9.292667
383.000000	10.263814
382.000000	11.300182
381.000000	12.443564
380.000000	13.642030
379.000000	14.914180
378.000000	16.749560
377.000000	18.242248
376.000000	19.579577
375.000000	20.961092
374.000000	22.384629
373.000000	23.763553
372.000000	25.197384
371.000000	26.583816
370.000000	27.973294
369.000000	29.377408
368.000000	30.715523
367.000000	31.972814
366.000000	33.277738
365.000000	34.435505
364.000000	35.520399
363.000000	36.555419
362.000000	37.416399
361.000000	38.232645
360.000000	38.966492
359.000000	39.659869
358.000000	40.175522
357.000000	40.648099
356.000000	40.956244
355.000000	41.185525
354.000000	41.265976
353.000000	41.315814
352.000000	41.197296
351.000000	40.981362
350.000000	40.651816
