PE UV       SUBTECH     SPECTRUM    ASCII       PEDS        4.00        
   -1
180627-9 top alpha.Sample.asc
18/06/27
23:29:23.00
18/06/27
23:29:23.00
Analyst
34s15gmt test
350.000000
1
Lambda 950
950L1201053
PerkinElmer UV WinLab 6.0.4.0738 / 1.61.00 Lambda 900

0
0
3350/16 889.8/4
0
0
VIS
1
1
1
CommonBeamDepol,RBeamAtt,SBeamAtt,universal reflectance
0
0
0
0
Program
 
0
3350/0.28 889.8/0.28
0
0
0
 
 
 
0
 
889.8
150
889.8
Front
31
on
3350/S:100 3350/R:100
 
0
0
0
 
0
 
 
 
0
 
 
0
0
8.0
4.00
4.00
False
False
202L1112213
 
0
0


0
0
#HDR
-1
-1
#GR
nm
%R
1.0
0.0
880.000000
-1.000000
531
8
36.229754
4.675292
#DATA
880.000000	21.301376
879.000000	21.234628
878.000000	21.166784
877.000000	21.118240
876.000000	21.051005
875.000000	20.987281
874.000000	20.916909
873.000000	20.855029
872.000000	20.787094
871.000000	20.732887
870.000000	20.670125
869.000000	20.584740
868.000000	20.520462
867.000000	20.455655
866.000000	20.401886
865.000000	20.332289
864.000000	20.265597
863.000000	20.185547
862.000000	20.129842
861.000000	20.063177
860.000000	19.977610
859.000000	19.910536
858.000000	19.849231
857.000000	19.781347
856.000000	19.712066
855.000000	19.632311
854.000000	19.572366
853.000000	19.498855
852.000000	19.414116
851.000000	19.343272
850.000000	19.287359
849.000000	19.198336
848.000000	19.141358
847.000000	19.056850
846.000000	18.996605
845.000000	18.915552
844.000000	18.850421
843.000000	18.759893
842.000000	18.685437
841.000000	18.609185
840.000000	18.537234
839.000000	18.445612
838.000000	18.385869
837.000000	18.312617
836.000000	18.228859
835.000000	18.158930
834.000000	18.080052
833.000000	18.002735
832.000000	17.928250
831.000000	17.842476
830.000000	17.763129
829.000000	17.695975
828.000000	17.598435
827.000000	17.512992
826.000000	17.454394
825.000000	17.361627
824.000000	17.282774
823.000000	17.215585
822.000000	17.130560
821.000000	17.031580
820.000000	16.964790
819.000000	16.888591
818.000000	16.793709
817.000000	16.719061
816.000000	16.625293
815.000000	16.537405
814.000000	16.459927
813.000000	16.385760
812.000000	16.299076
811.000000	16.209847
810.000000	16.128888
809.000000	16.042667
808.000000	15.944525
807.000000	15.872359
806.000000	15.794600
805.000000	15.698612
804.000000	15.626982
803.000000	15.521449
802.000000	15.446514
801.000000	15.345117
800.000000	15.267478
799.000000	15.173963
798.000000	15.090419
797.000000	15.002242
796.000000	14.915226
795.000000	14.822464
794.000000	14.726854
793.000000	14.642429
792.000000	14.562780
791.000000	14.466263
790.000000	14.373355
789.000000	14.280849
788.000000	14.201872
787.000000	14.104229
786.000000	14.011995
785.000000	13.923519
784.000000	13.830212
783.000000	13.735040
782.000000	13.641372
781.000000	13.561975
780.000000	13.467399
779.000000	13.377536
778.000000	13.283752
777.000000	13.194156
776.000000	13.093360
775.000000	13.006380
774.000000	12.904803
773.000000	12.817868
772.000000	12.731392
771.000000	12.637063
770.000000	12.538972
769.000000	12.440145
768.000000	12.350625
767.000000	12.259119
766.000000	12.164858
765.000000	12.065699
764.000000	11.980970
763.000000	11.886944
762.000000	11.791991
761.000000	11.690719
760.000000	11.601186
759.000000	11.506597
758.000000	11.420268
757.000000	11.329938
756.000000	11.226101
755.000000	11.132762
754.000000	11.042011
753.000000	10.947311
752.000000	10.856135
751.000000	10.759632
750.000000	10.669352
749.000000	10.571834
748.000000	10.487404
747.000000	10.384797
746.000000	10.299715
745.000000	10.209555
744.000000	10.114175
743.000000	10.022737
742.000000	9.928699
741.000000	9.834066
740.000000	9.745893
739.000000	9.653857
738.000000	9.564627
737.000000	9.469693
736.000000	9.379785
735.000000	9.291819
734.000000	9.202020
733.000000	9.113629
732.000000	9.030189
731.000000	8.931360
730.000000	8.840143
729.000000	8.754224
728.000000	8.665508
727.000000	8.579373
726.000000	8.492971
725.000000	8.411798
724.000000	8.321572
723.000000	8.238079
722.000000	8.148817
721.000000	8.062629
720.000000	7.983723
719.000000	7.894895
718.000000	7.810608
717.000000	7.730398
716.000000	7.646047
715.000000	7.569919
714.000000	7.489317
713.000000	7.407509
712.000000	7.326820
711.000000	7.246392
710.000000	7.169070
709.000000	7.093048
708.000000	7.015138
707.000000	6.937888
706.000000	6.866709
705.000000	6.793132
704.000000	6.720343
703.000000	6.648328
702.000000	6.575553
701.000000	6.504787
700.000000	6.434915
699.000000	6.366395
698.000000	6.295157
697.000000	6.232508
696.000000	6.166568
695.000000	6.103183
694.000000	6.041424
693.000000	5.979099
692.000000	5.916747
691.000000	5.851460
690.000000	5.792543
689.000000	5.731230
688.000000	5.674380
687.000000	5.622436
686.000000	5.569756
685.000000	5.514089
684.000000	5.464191
683.000000	5.412503
682.000000	5.364635
681.000000	5.314679
680.000000	5.271464
679.000000	5.226904
678.000000	5.184117
677.000000	5.143090
676.000000	5.102362
675.000000	5.064190
674.000000	5.027424
673.000000	4.992603
672.000000	4.958538
671.000000	4.926249
670.000000	4.900472
669.000000	4.872987
668.000000	4.844545
667.000000	4.821067
666.000000	4.799097
665.000000	4.778286
664.000000	4.755438
663.000000	4.739575
662.000000	4.723933
661.000000	4.710311
660.000000	4.700548
659.000000	4.691609
658.000000	4.685999
657.000000	4.679094
656.000000	4.676900
655.000000	4.675402
654.000000	4.675292
653.000000	4.679342
652.000000	4.683240
651.000000	4.690224
650.000000	4.700789
649.000000	4.715389
648.000000	4.731386
647.000000	4.745932
646.000000	4.767157
645.000000	4.787686
644.000000	4.810169
643.000000	4.836818
642.000000	4.866364
641.000000	4.897586
640.000000	4.932617
639.000000	4.967601
638.000000	5.006611
637.000000	5.050703
636.000000	5.094299
635.000000	5.139515
634.000000	5.188131
633.000000	5.240163
632.000000	5.295274
631.000000	5.355376
630.000000	5.412644
629.000000	5.475139
628.000000	5.543007
627.000000	5.611279
626.000000	5.679765
625.000000	5.752216
624.000000	5.827752
623.000000	5.906920
622.000000	5.989593
621.000000	6.072954
620.000000	6.163445
619.000000	6.258889
618.000000	6.351097
617.000000	6.448068
616.000000	6.544466
615.000000	6.644092
614.000000	6.747501
613.000000	6.854210
612.000000	6.967617
611.000000	7.082588
610.000000	7.199279
609.000000	7.317859
608.000000	7.439348
607.000000	7.564081
606.000000	7.689764
605.000000	7.817999
604.000000	7.952645
603.000000	8.088008
602.000000	8.225277
601.000000	8.366771
600.000000	8.514029
599.000000	8.661484
598.000000	8.815297
597.000000	8.966242
596.000000	9.117441
595.000000	9.276693
594.000000	9.437821
593.000000	9.602035
592.000000	9.769410
591.000000	9.938384
590.000000	10.113271
589.000000	10.290480
588.000000	10.466665
587.000000	10.645524
586.000000	10.824385
585.000000	11.008525
584.000000	11.196600
583.000000	11.385808
582.000000	11.576559
581.000000	11.776097
580.000000	11.974206
579.000000	12.176651
578.000000	12.380930
577.000000	12.584416
576.000000	12.791145
575.000000	12.999470
574.000000	13.204535
573.000000	13.421961
572.000000	13.639927
571.000000	13.852545
570.000000	14.072364
569.000000	14.296811
568.000000	14.520836
567.000000	14.749693
566.000000	14.970228
565.000000	15.188483
564.000000	15.421330
563.000000	15.651580
562.000000	15.887023
561.000000	16.134747
560.000000	16.389205
559.000000	16.630212
558.000000	16.866638
557.000000	17.108809
556.000000	17.351679
555.000000	17.595700
554.000000	17.840678
553.000000	18.081552
552.000000	18.327301
551.000000	18.579402
550.000000	18.831016
549.000000	19.081623
548.000000	19.335780
547.000000	19.590434
546.000000	19.844132
545.000000	20.094702
544.000000	20.343919
543.000000	20.597087
542.000000	20.847038
541.000000	21.105725
540.000000	21.370409
539.000000	21.626172
538.000000	21.878530
537.000000	22.137697
536.000000	22.393725
535.000000	22.647072
534.000000	22.898222
533.000000	23.145156
532.000000	23.404580
531.000000	23.668119
530.000000	23.917813
529.000000	24.170811
528.000000	24.436825
527.000000	24.689062
526.000000	24.936026
525.000000	25.192320
524.000000	25.439860
523.000000	25.690402
522.000000	25.937710
521.000000	26.178519
520.000000	26.425368
519.000000	26.672225
518.000000	26.914635
517.000000	27.157166
516.000000	27.400956
515.000000	27.638297
514.000000	27.869153
513.000000	28.100153
512.000000	28.332031
511.000000	28.558100
510.000000	28.789900
509.000000	29.023216
508.000000	29.239054
507.000000	29.456831
506.000000	29.673561
505.000000	29.881442
504.000000	30.091127
503.000000	30.298613
502.000000	30.504711
501.000000	30.711228
500.000000	30.908432
499.000000	31.109497
498.000000	31.310210
497.000000	31.504893
496.000000	31.709995
495.000000	31.906280
494.000000	32.106182
493.000000	32.302414
492.000000	32.488673
491.000000	32.680585
490.000000	32.875511
489.000000	33.059103
488.000000	33.227254
487.000000	33.394639
486.000000	33.546393
485.000000	33.720694
484.000000	33.889013
483.000000	34.051755
482.000000	34.203267
481.000000	34.350233
480.000000	34.491605
479.000000	34.616872
478.000000	34.735794
477.000000	34.851751
476.000000	34.966575
475.000000	35.079863
474.000000	35.181639
473.000000	35.275678
472.000000	35.375544
471.000000	35.471264
470.000000	35.559786
469.000000	35.631900
468.000000	35.703075
467.000000	35.772257
466.000000	35.827749
465.000000	35.872841
464.000000	35.932240
463.000000	35.984344
462.000000	36.013308
461.000000	36.033270
460.000000	36.053379
459.000000	36.059838
458.000000	36.075863
457.000000	36.091342
456.000000	36.082618
455.000000	36.046098
454.000000	36.039076
453.000000	36.009784
452.000000	35.953875
451.000000	35.908313
450.000000	35.852582
449.000000	35.778051
448.000000	35.708889
447.000000	35.619509
446.000000	35.522153
445.000000	35.435457
444.000000	35.311535
443.000000	35.182811
442.000000	35.058711
441.000000	34.914421
440.000000	34.750217
439.000000	34.577892
438.000000	34.390573
437.000000	34.202791
436.000000	33.996690
435.000000	33.787834
434.000000	33.565583
433.000000	33.341020
432.000000	33.082369
431.000000	32.796774
430.000000	32.496077
429.000000	32.186329
428.000000	31.870056
427.000000	31.551137
426.000000	31.219745
425.000000	30.855062
424.000000	30.485987
423.000000	30.102813
422.000000	29.700348
421.000000	29.279884
420.000000	28.826167
419.000000	28.356720
418.000000	27.882943
417.000000	27.389331
416.000000	26.896525
415.000000	26.376661
414.000000	25.828886
413.000000	25.259328
412.000000	24.655296
411.000000	24.058735
410.000000	23.441586
409.000000	22.817845
408.000000	22.154683
407.000000	21.493707
406.000000	20.816512
405.000000	20.120431
404.000000	19.408608
403.000000	18.684498
402.000000	17.945691
401.000000	17.179197
400.000000	16.414836
399.000000	15.655917
398.000000	14.892046
397.000000	14.133342
396.000000	13.364542
395.000000	12.615672
394.000000	11.879443
393.000000	11.142673
392.000000	10.426848
391.000000	9.730488
390.000000	9.076031
389.000000	8.444846
388.000000	7.870218
387.000000	7.337534
386.000000	6.871970
385.000000	6.466684
384.000000	6.131719
383.000000	5.872475
382.000000	5.692097
381.000000	5.611345
380.000000	5.633777
379.000000	5.764057
378.000000	6.112584
377.000000	6.537786
376.000000	6.993743
375.000000	7.592746
374.000000	8.286172
373.000000	9.114222
372.000000	10.022180
371.000000	11.034017
370.000000	12.160621
369.000000	13.382103
368.000000	14.667799
367.000000	15.987461
366.000000	17.401518
365.000000	18.840751
364.000000	20.293723
363.000000	21.749086
362.000000	23.195876
361.000000	24.631318
360.000000	26.028938
359.000000	27.385490
358.000000	28.737819
357.000000	29.952328
356.000000	31.119348
355.000000	32.204365
354.000000	33.208129
353.000000	34.114109
352.000000	34.932682
351.000000	35.641975
350.000000	36.229754
