PE UV       SUBTECH     SPECTRUM    ASCII       PEDS        4.00        
   -1
180625-4 z top.Sample.asc
18/06/25
22:48:33.00
18/06/25
22:48:33.00
Analyst
34s15gmt
350.000000
1
Lambda 950
950L1201053
PerkinElmer UV WinLab 6.0.4.0738 / 1.61.00 Lambda 900

0
0
3350/16 889.8/4
0
0
VIS
1
1
1
CommonBeamDepol,RBeamAtt,SBeamAtt,universal reflectance
0
0
0
0
Program
 
0
3350/0.28 889.8/0.28
0
0
0
 
 
 
0
 
889.8
150
889.8
Front
31
on
3350/S:100 3350/R:100
 
0
0
0
 
0
 
 
 
0
 
 
0
0
8.0
4.00
4.00
False
False
202L1112213
 
0
0


0
0
#HDR
-1
-1
#GR
nm
%R
1.0
0.0
880.000000
-1.000000
531
8
41.663884
4.705583
#DATA
880.000000	20.977746
879.000000	20.910429
878.000000	20.838038
877.000000	20.772102
876.000000	20.712204
875.000000	20.636161
874.000000	20.574868
873.000000	20.486455
872.000000	20.422452
871.000000	20.339137
870.000000	20.274600
869.000000	20.206664
868.000000	20.118409
867.000000	20.046931
866.000000	19.971328
865.000000	19.904157
864.000000	19.839668
863.000000	19.743693
862.000000	19.673078
861.000000	19.588783
860.000000	19.526711
859.000000	19.433123
858.000000	19.371526
857.000000	19.288138
856.000000	19.214924
855.000000	19.123138
854.000000	19.052458
853.000000	18.986731
852.000000	18.910517
851.000000	18.815657
850.000000	18.742472
849.000000	18.649989
848.000000	18.583802
847.000000	18.500473
846.000000	18.402139
845.000000	18.336569
844.000000	18.254302
843.000000	18.169993
842.000000	18.099948
841.000000	18.009915
840.000000	17.918333
839.000000	17.851012
838.000000	17.742520
837.000000	17.674810
836.000000	17.597421
835.000000	17.520958
834.000000	17.410271
833.000000	17.336429
832.000000	17.255868
831.000000	17.166279
830.000000	17.073239
829.000000	17.008057
828.000000	16.909312
827.000000	16.836889
826.000000	16.732130
825.000000	16.650301
824.000000	16.560379
823.000000	16.471144
822.000000	16.388698
821.000000	16.290249
820.000000	16.197090
819.000000	16.108808
818.000000	16.030927
817.000000	15.945383
816.000000	15.850159
815.000000	15.764068
814.000000	15.672211
813.000000	15.578232
812.000000	15.481338
811.000000	15.395461
810.000000	15.325229
809.000000	15.226056
808.000000	15.125109
807.000000	15.030382
806.000000	14.938159
805.000000	14.847347
804.000000	14.749615
803.000000	14.658009
802.000000	14.558963
801.000000	14.458638
800.000000	14.366959
799.000000	14.281176
798.000000	14.189120
797.000000	14.093961
796.000000	14.009281
795.000000	13.911599
794.000000	13.813873
793.000000	13.725103
792.000000	13.626543
791.000000	13.527626
790.000000	13.431608
789.000000	13.339948
788.000000	13.241889
787.000000	13.148905
786.000000	13.047854
785.000000	12.962577
784.000000	12.859720
783.000000	12.758100
782.000000	12.674108
781.000000	12.568003
780.000000	12.480087
779.000000	12.375834
778.000000	12.278464
777.000000	12.181955
776.000000	12.084020
775.000000	11.985576
774.000000	11.895713
773.000000	11.798675
772.000000	11.709519
771.000000	11.608878
770.000000	11.512525
769.000000	11.411633
768.000000	11.312089
767.000000	11.217083
766.000000	11.117905
765.000000	11.029229
764.000000	10.929089
763.000000	10.841291
762.000000	10.737284
761.000000	10.639169
760.000000	10.540541
759.000000	10.454428
758.000000	10.351009
757.000000	10.263356
756.000000	10.162499
755.000000	10.068740
754.000000	9.976857
753.000000	9.888927
752.000000	9.793587
751.000000	9.701936
750.000000	9.601036
749.000000	9.504915
748.000000	9.418298
747.000000	9.322642
746.000000	9.229173
745.000000	9.141376
744.000000	9.048977
743.000000	8.962549
742.000000	8.869790
741.000000	8.782072
740.000000	8.694926
739.000000	8.598183
738.000000	8.507068
737.000000	8.416911
736.000000	8.327127
735.000000	8.242618
734.000000	8.154500
733.000000	8.069597
732.000000	7.981991
731.000000	7.896154
730.000000	7.811182
729.000000	7.727747
728.000000	7.644722
727.000000	7.561846
726.000000	7.482279
725.000000	7.400264
724.000000	7.315284
723.000000	7.240659
722.000000	7.161831
721.000000	7.082630
720.000000	7.010324
719.000000	6.931849
718.000000	6.853786
717.000000	6.777048
716.000000	6.705518
715.000000	6.632344
714.000000	6.560762
713.000000	6.489031
712.000000	6.416351
711.000000	6.349927
710.000000	6.280418
709.000000	6.217553
708.000000	6.150773
707.000000	6.082671
706.000000	6.019563
705.000000	5.959943
704.000000	5.896824
703.000000	5.836812
702.000000	5.781504
701.000000	5.721041
700.000000	5.662981
699.000000	5.612367
698.000000	5.555628
697.000000	5.504265
696.000000	5.451020
695.000000	5.403752
694.000000	5.358428
693.000000	5.309422
692.000000	5.263618
691.000000	5.220620
690.000000	5.178112
689.000000	5.133609
688.000000	5.097190
687.000000	5.061122
686.000000	5.025780
685.000000	4.994262
684.000000	4.963792
683.000000	4.928968
682.000000	4.902613
681.000000	4.874094
680.000000	4.850420
679.000000	4.827286
678.000000	4.804162
677.000000	4.783243
676.000000	4.767389
675.000000	4.754928
674.000000	4.742456
673.000000	4.729300
672.000000	4.720647
671.000000	4.714301
670.000000	4.713606
669.000000	4.709451
668.000000	4.705583
667.000000	4.707522
666.000000	4.713995
665.000000	4.719717
664.000000	4.727258
663.000000	4.737334
662.000000	4.750311
661.000000	4.764053
660.000000	4.785366
659.000000	4.806764
658.000000	4.828391
657.000000	4.850935
656.000000	4.878773
655.000000	4.907445
654.000000	4.939921
653.000000	4.975931
652.000000	5.012806
651.000000	5.055044
650.000000	5.094983
649.000000	5.140098
648.000000	5.188901
647.000000	5.241071
646.000000	5.295592
645.000000	5.347876
644.000000	5.406694
643.000000	5.466496
642.000000	5.530667
641.000000	5.599148
640.000000	5.668160
639.000000	5.739965
638.000000	5.815188
637.000000	5.895152
636.000000	5.973883
635.000000	6.058140
634.000000	6.141810
633.000000	6.227845
632.000000	6.321502
631.000000	6.417860
630.000000	6.516082
629.000000	6.615654
628.000000	6.722043
627.000000	6.829451
626.000000	6.934320
625.000000	7.043651
624.000000	7.160009
623.000000	7.274859
622.000000	7.393969
621.000000	7.522668
620.000000	7.650963
619.000000	7.780298
618.000000	7.912080
617.000000	8.044002
616.000000	8.181875
615.000000	8.321654
614.000000	8.465246
613.000000	8.610067
612.000000	8.757451
611.000000	8.912236
610.000000	9.070148
609.000000	9.226255
608.000000	9.385763
607.000000	9.550975
606.000000	9.715743
605.000000	9.881468
604.000000	10.054558
603.000000	10.228859
602.000000	10.406896
601.000000	10.589074
600.000000	10.771337
599.000000	10.955813
598.000000	11.142593
597.000000	11.334096
596.000000	11.524114
595.000000	11.716682
594.000000	11.913101
593.000000	12.110459
592.000000	12.313015
591.000000	12.517247
590.000000	12.726863
589.000000	12.937957
588.000000	13.153696
587.000000	13.366488
586.000000	13.579738
585.000000	13.797133
584.000000	14.015391
583.000000	14.237810
582.000000	14.458069
581.000000	14.680623
580.000000	14.910880
579.000000	15.135106
578.000000	15.366624
577.000000	15.609630
576.000000	15.838766
575.000000	16.073061
574.000000	16.309957
573.000000	16.548192
572.000000	16.786576
571.000000	17.034074
570.000000	17.282499
569.000000	17.525842
568.000000	17.771798
567.000000	18.022962
566.000000	18.272230
565.000000	18.512833
564.000000	18.751632
563.000000	19.005107
562.000000	19.256901
561.000000	19.521762
560.000000	19.799918
559.000000	20.060315
558.000000	20.317946
557.000000	20.572960
556.000000	20.833411
555.000000	21.088487
554.000000	21.334872
553.000000	21.594548
552.000000	21.859139
551.000000	22.122158
550.000000	22.377250
549.000000	22.636257
548.000000	22.906938
547.000000	23.165434
546.000000	23.419202
545.000000	23.682798
544.000000	23.938979
543.000000	24.195962
542.000000	24.457475
541.000000	24.711669
540.000000	24.976561
539.000000	25.241111
538.000000	25.503487
537.000000	25.766151
536.000000	26.016400
535.000000	26.270319
534.000000	26.521767
533.000000	26.767565
532.000000	27.017780
531.000000	27.274209
530.000000	27.531902
529.000000	27.776478
528.000000	28.021719
527.000000	28.276993
526.000000	28.517312
525.000000	28.759949
524.000000	29.001983
523.000000	29.232810
522.000000	29.469655
521.000000	29.709809
520.000000	29.949922
519.000000	30.185500
518.000000	30.415711
517.000000	30.642824
516.000000	30.865507
515.000000	31.088678
514.000000	31.298867
513.000000	31.508994
512.000000	31.723652
511.000000	31.935840
510.000000	32.142438
509.000000	32.343754
508.000000	32.544187
507.000000	32.739557
506.000000	32.924385
505.000000	33.112952
504.000000	33.298313
503.000000	33.479772
502.000000	33.679057
501.000000	33.858402
500.000000	34.025883
499.000000	34.201334
498.000000	34.377255
497.000000	34.555349
496.000000	34.709261
495.000000	34.874504
494.000000	35.030111
493.000000	35.182086
492.000000	35.344474
491.000000	35.498162
490.000000	35.647962
489.000000	35.793467
488.000000	35.928624
487.000000	36.049574
486.000000	36.177122
485.000000	36.311222
484.000000	36.443605
483.000000	36.553867
482.000000	36.634822
481.000000	36.733648
480.000000	36.838736
479.000000	36.940079
478.000000	37.017165
477.000000	37.076477
476.000000	37.147409
475.000000	37.209978
474.000000	37.258625
473.000000	37.311725
472.000000	37.348922
471.000000	37.380488
470.000000	37.402242
469.000000	37.435052
468.000000	37.460188
467.000000	37.466935
466.000000	37.458860
465.000000	37.444025
464.000000	37.443159
463.000000	37.433477
462.000000	37.398257
461.000000	37.363041
460.000000	37.324699
459.000000	37.275095
458.000000	37.205186
457.000000	37.143257
454.000000	36.849761
453.000000	36.741954
452.000000	36.632018
451.000000	36.511041
450.000000	36.381379
449.000000	36.236662
448.000000	36.074646
447.000000	35.900623
446.000000	35.703804
445.000000	35.498717
444.000000	35.299767
443.000000	35.092099
442.000000	34.856422
441.000000	34.615427
440.000000	34.348862
439.000000	34.070561
438.000000	33.780786
437.000000	33.478099
436.000000	33.161893
435.000000	32.829353
434.000000	32.482312
433.000000	32.130221
432.000000	31.740788
431.000000	31.347737
430.000000	30.941763
429.000000	30.541165
428.000000	30.086670
427.000000	29.620569
426.000000	29.145322
425.000000	28.659503
424.000000	28.158539
423.000000	27.629377
422.000000	27.079749
421.000000	26.518209
420.000000	25.924083
419.000000	25.314368
418.000000	24.688110
417.000000	24.056648
416.000000	23.400851
415.000000	22.738657
414.000000	22.062694
413.000000	21.350491
412.000000	20.628322
411.000000	19.888741
410.000000	19.132165
409.000000	18.364520
408.000000	17.584386
407.000000	16.824426
406.000000	16.039998
405.000000	15.255081
404.000000	14.462622
403.000000	13.673885
402.000000	12.882538
401.000000	12.100862
400.000000	11.325044
399.000000	10.562386
398.000000	9.828690
397.000000	9.134200
396.000000	8.476382
395.000000	7.852582
394.000000	7.277183
393.000000	6.744889
392.000000	6.273405
391.000000	5.869814
390.000000	5.539605
389.000000	5.287613
388.000000	5.116420
387.000000	5.049367
386.000000	5.083204
385.000000	5.229446
384.000000	5.482161
383.000000	5.846337
382.000000	6.325417
381.000000	6.934274
380.000000	7.662707
379.000000	8.521577
378.000000	9.890282
377.000000	11.095648
376.000000	12.254242
375.000000	13.501114
374.000000	14.818743
373.000000	16.229047
372.000000	17.727597
371.000000	19.234943
370.000000	20.793794
369.000000	22.417938
368.000000	24.014799
367.000000	25.610374
366.000000	27.253971
365.000000	28.793630
364.000000	30.279481
363.000000	31.719853
362.000000	33.046476
361.000000	34.302726
360.000000	35.496552
359.000000	36.640753
358.000000	37.624678
357.000000	38.543202
356.000000	39.313295
355.000000	40.016051
354.000000	40.539036
353.000000	40.998084
352.000000	41.340329
351.000000	41.559291
350.000000	41.663884
