PE UV       SUBTECH     SPECTRUM    ASCII       PEDS        4.00        
   -1
180625-3 z mid.Sample.asc
18/06/25
21:52:42.00
18/06/25
21:52:42.00
Analyst
34s15gmt
350.000000
1
Lambda 950
950L1201053
PerkinElmer UV WinLab 6.0.4.0738 / 1.61.00 Lambda 900

0
0
3350/16 889.8/4
0
0
VIS
1
1
1
CommonBeamDepol,RBeamAtt,SBeamAtt,universal reflectance
0
0
0
0
Program
 
0
3350/0.28 889.8/0.28
0
0
0
 
 
 
0
 
889.8
150
889.8
Front
31
on
3350/S:100 3350/R:100
 
0
0
0
 
0
 
 
 
0
 
 
0
0
8.0
4.00
4.00
False
False
202L1112213
 
0
0


0
0
#HDR
-1
-1
#GR
nm
%R
1.0
0.0
880.000000
-1.000000
531
8
40.197142
4.606136
#DATA
880.000000	19.531552
879.000000	19.458927
878.000000	19.384119
877.000000	19.306777
876.000000	19.233113
875.000000	19.161545
874.000000	19.087135
873.000000	19.020111
872.000000	18.950105
871.000000	18.883758
870.000000	18.792094
869.000000	18.714818
868.000000	18.648774
867.000000	18.554889
866.000000	18.481134
865.000000	18.418978
864.000000	18.331989
863.000000	18.263470
862.000000	18.175019
861.000000	18.110735
860.000000	18.029105
859.000000	17.951235
858.000000	17.872358
857.000000	17.788634
856.000000	17.714612
855.000000	17.628698
854.000000	17.550506
853.000000	17.474893
852.000000	17.401661
851.000000	17.313807
850.000000	17.222046
849.000000	17.145466
848.000000	17.065999
847.000000	16.981578
846.000000	16.900640
845.000000	16.831343
844.000000	16.731966
843.000000	16.656087
842.000000	16.565088
841.000000	16.486592
840.000000	16.391049
839.000000	16.327242
838.000000	16.245041
837.000000	16.151329
836.000000	16.057006
835.000000	15.969580
834.000000	15.894290
833.000000	15.803482
832.000000	15.731061
831.000000	15.637337
830.000000	15.545865
829.000000	15.466737
828.000000	15.367270
827.000000	15.291718
826.000000	15.213221
825.000000	15.116975
824.000000	15.032661
823.000000	14.947418
822.000000	14.862367
821.000000	14.767910
820.000000	14.677703
819.000000	14.572223
818.000000	14.495889
817.000000	14.400021
816.000000	14.314868
815.000000	14.229561
814.000000	14.132282
813.000000	14.043082
812.000000	13.953030
811.000000	13.859375
810.000000	13.783338
809.000000	13.692305
808.000000	13.591174
807.000000	13.509209
806.000000	13.405907
805.000000	13.333191
804.000000	13.233193
803.000000	13.141804
802.000000	13.052397
801.000000	12.972230
800.000000	12.863699
799.000000	12.773082
798.000000	12.684940
797.000000	12.594373
796.000000	12.491753
795.000000	12.393806
794.000000	12.308639
793.000000	12.218701
792.000000	12.132002
791.000000	12.037172
790.000000	11.946170
789.000000	11.853272
788.000000	11.747597
787.000000	11.662118
786.000000	11.576267
785.000000	11.488200
784.000000	11.391768
783.000000	11.297008
782.000000	11.206181
781.000000	11.112068
780.000000	11.021039
779.000000	10.920934
778.000000	10.837407
777.000000	10.740305
776.000000	10.648110
775.000000	10.551483
774.000000	10.465078
773.000000	10.378731
772.000000	10.289380
771.000000	10.198177
770.000000	10.098144
769.000000	10.010352
768.000000	9.914980
767.000000	9.830351
766.000000	9.742109
765.000000	9.652794
764.000000	9.560407
763.000000	9.473148
762.000000	9.385542
761.000000	9.292871
760.000000	9.202960
759.000000	9.114089
758.000000	9.021386
757.000000	8.936209
756.000000	8.853947
755.000000	8.768626
754.000000	8.674836
753.000000	8.589406
752.000000	8.507225
751.000000	8.417297
750.000000	8.328498
749.000000	8.243994
748.000000	8.164181
747.000000	8.083805
746.000000	7.997161
745.000000	7.911397
744.000000	7.829614
743.000000	7.744536
742.000000	7.667820
741.000000	7.592497
740.000000	7.510974
739.000000	7.431857
738.000000	7.350981
737.000000	7.270379
736.000000	7.194021
735.000000	7.120158
734.000000	7.040967
733.000000	6.968520
732.000000	6.895265
731.000000	6.820240
730.000000	6.747779
729.000000	6.677179
728.000000	6.603885
727.000000	6.535327
726.000000	6.464435
725.000000	6.400565
724.000000	6.329204
723.000000	6.265093
722.000000	6.195375
721.000000	6.130094
720.000000	6.067226
719.000000	6.008531
718.000000	5.941441
717.000000	5.879256
716.000000	5.822167
715.000000	5.762083
714.000000	5.709496
713.000000	5.651977
712.000000	5.595865
711.000000	5.544098
710.000000	5.490164
709.000000	5.441615
708.000000	5.392229
707.000000	5.342685
706.000000	5.293469
705.000000	5.248419
704.000000	5.206608
703.000000	5.164877
702.000000	5.124751
701.000000	5.081880
700.000000	5.044676
699.000000	5.002787
698.000000	4.970191
697.000000	4.935057
696.000000	4.902392
695.000000	4.870050
694.000000	4.840819
693.000000	4.813793
692.000000	4.785456
691.000000	4.760863
690.000000	4.732052
689.000000	4.714936
688.000000	4.698440
687.000000	4.678756
686.000000	4.664945
685.000000	4.652192
684.000000	4.641094
683.000000	4.630484
682.000000	4.620276
681.000000	4.615203
680.000000	4.610461
679.000000	4.606136
678.000000	4.607536
677.000000	4.611428
676.000000	4.614430
675.000000	4.619966
674.000000	4.628864
673.000000	4.635616
672.000000	4.649509
671.000000	4.666285
670.000000	4.679081
669.000000	4.700265
668.000000	4.721859
667.000000	4.745427
666.000000	4.769730
665.000000	4.797323
664.000000	4.827992
663.000000	4.860816
662.000000	4.894164
661.000000	4.930875
660.000000	4.972592
659.000000	5.016277
658.000000	5.061579
657.000000	5.108857
656.000000	5.154549
655.000000	5.208948
654.000000	5.261902
653.000000	5.319084
652.000000	5.375266
651.000000	5.437327
650.000000	5.500813
649.000000	5.572078
648.000000	5.641048
647.000000	5.711842
646.000000	5.786222
645.000000	5.860454
644.000000	5.943134
643.000000	6.023042
642.000000	6.107665
641.000000	6.196429
640.000000	6.287435
639.000000	6.381532
638.000000	6.475666
637.000000	6.574885
636.000000	6.677401
635.000000	6.777764
634.000000	6.880958
633.000000	6.989159
632.000000	7.101759
631.000000	7.215040
630.000000	7.330379
629.000000	7.452946
628.000000	7.577402
627.000000	7.700457
626.000000	7.825204
625.000000	7.955992
624.000000	8.088904
623.000000	8.219887
622.000000	8.356172
621.000000	8.497915
620.000000	8.641730
619.000000	8.789075
618.000000	8.935270
617.000000	9.085880
616.000000	9.240246
615.000000	9.394258
614.000000	9.548260
613.000000	9.706857
612.000000	9.872813
611.000000	10.043402
610.000000	10.208554
609.000000	10.381138
608.000000	10.555930
607.000000	10.727971
606.000000	10.905697
605.000000	11.083187
604.000000	11.265164
603.000000	11.443676
602.000000	11.629593
601.000000	11.826603
600.000000	12.018408
599.000000	12.214780
598.000000	12.415485
597.000000	12.609580
596.000000	12.810773
595.000000	13.003629
594.000000	13.202680
593.000000	13.408955
592.000000	13.616385
591.000000	13.829948
590.000000	14.043657
589.000000	14.257696
588.000000	14.477695
587.000000	14.691739
586.000000	14.909791
585.000000	15.127805
584.000000	15.342634
583.000000	15.558869
582.000000	15.780733
581.000000	16.010517
580.000000	16.244004
579.000000	16.471082
578.000000	16.704333
577.000000	16.937315
576.000000	17.170578
575.000000	17.403665
574.000000	17.627371
573.000000	17.858708
572.000000	18.098558
571.000000	18.344200
570.000000	18.579887
569.000000	18.814048
568.000000	19.056535
567.000000	19.302151
566.000000	19.547049
565.000000	19.782895
564.000000	20.016931
563.000000	20.257910
562.000000	20.504395
561.000000	20.759970
560.000000	21.021332
559.000000	21.267362
558.000000	21.517095
557.000000	21.760278
556.000000	22.003100
555.000000	22.251256
554.000000	22.494366
553.000000	22.738964
552.000000	22.987869
551.000000	23.240064
550.000000	23.485370
549.000000	23.726159
548.000000	23.972020
547.000000	24.213760
546.000000	24.455117
545.000000	24.695716
544.000000	24.935493
543.000000	25.179081
542.000000	25.419875
541.000000	25.653553
540.000000	25.889687
539.000000	26.143398
538.000000	26.387260
537.000000	26.613148
536.000000	26.846579
535.000000	27.084017
534.000000	27.313697
533.000000	27.542911
532.000000	27.765026
531.000000	27.994455
530.000000	28.232711
529.000000	28.463639
528.000000	28.691246
527.000000	28.910107
526.000000	29.129536
525.000000	29.352835
524.000000	29.564168
523.000000	29.782325
522.000000	29.998797
521.000000	30.205980
520.000000	30.415849
519.000000	30.619336
518.000000	30.826811
517.000000	31.029293
516.000000	31.221663
515.000000	31.418952
514.000000	31.609839
513.000000	31.794214
512.000000	31.984845
511.000000	32.167070
510.000000	32.347879
509.000000	32.519778
508.000000	32.691540
507.000000	32.866367
506.000000	33.030880
505.000000	33.191272
504.000000	33.343802
503.000000	33.506193
502.000000	33.659200
501.000000	33.803241
500.000000	33.944376
499.000000	34.090875
498.000000	34.237735
497.000000	34.373697
496.000000	34.489110
495.000000	34.619648
494.000000	34.762052
493.000000	34.899745
492.000000	35.012165
491.000000	35.125246
490.000000	35.243720
489.000000	35.355072
488.000000	35.450344
487.000000	35.546206
486.000000	35.650758
485.000000	35.742938
484.000000	35.828211
483.000000	35.905360
482.000000	35.961599
481.000000	36.026502
480.000000	36.106619
479.000000	36.166895
478.000000	36.210389
477.000000	36.238024
476.000000	36.249618
475.000000	36.275521
474.000000	36.310927
473.000000	36.328075
472.000000	36.334975
471.000000	36.343125
470.000000	36.333372
469.000000	36.318866
468.000000	36.293469
467.000000	36.264134
466.000000	36.226860
465.000000	36.180428
464.000000	36.129678
463.000000	36.079633
462.000000	36.018732
461.000000	35.936866
460.000000	35.849803
459.000000	35.753827
458.000000	35.661574
457.000000	35.549953
456.000000	35.440891
455.000000	35.317082
454.000000	35.170999
453.000000	35.008949
452.000000	34.852544
451.000000	34.685907
450.000000	34.509528
449.000000	34.321353
448.000000	34.119412
447.000000	33.903689
446.000000	33.670055
445.000000	33.441023
444.000000	33.185222
443.000000	32.907370
442.000000	32.621665
441.000000	32.342618
440.000000	32.049091
439.000000	31.726668
438.000000	31.394053
437.000000	31.057117
436.000000	30.705084
435.000000	30.328512
434.000000	29.932555
433.000000	29.546426
432.000000	29.130174
431.000000	28.694265
430.000000	28.240007
429.000000	27.770423
428.000000	27.298011
427.000000	26.802382
426.000000	26.298000
425.000000	25.777315
424.000000	25.238718
423.000000	24.679463
422.000000	24.108973
421.000000	23.524831
420.000000	22.918700
419.000000	22.295165
418.000000	21.651883
417.000000	20.991522
416.000000	20.333716
415.000000	19.674151
414.000000	19.002086
413.000000	18.297191
412.000000	17.581693
411.000000	16.862173
410.000000	16.137557
409.000000	15.408549
408.000000	14.673203
407.000000	13.949678
406.000000	13.223734
405.000000	12.511389
404.000000	11.800826
403.000000	11.097329
402.000000	10.415447
401.000000	9.739444
400.000000	9.084372
399.000000	8.471355
398.000000	7.888441
397.000000	7.346003
396.000000	6.854382
395.000000	6.403760
394.000000	6.022673
393.000000	5.693377
392.000000	5.424925
391.000000	5.240049
390.000000	5.129681
389.000000	5.104298
388.000000	5.173876
387.000000	5.323161
386.000000	5.586250
385.000000	5.942771
384.000000	6.395099
383.000000	6.946664
382.000000	7.623250
381.000000	8.402392
380.000000	9.283577
379.000000	10.254579
378.000000	11.735878
377.000000	13.011752
376.000000	14.145407
375.000000	15.426395
374.000000	16.735710
373.000000	18.109366
372.000000	19.517768
371.000000	20.949118
370.000000	22.381673
369.000000	23.863303
368.000000	25.304947
367.000000	26.734367
366.000000	28.194321
365.000000	29.547038
364.000000	30.869257
363.000000	32.126657
362.000000	33.291831
361.000000	34.387150
360.000000	35.378717
359.000000	36.317161
358.000000	37.186522
357.000000	37.935082
356.000000	38.577443
355.000000	39.097099
354.000000	39.548459
353.000000	39.888165
352.000000	40.091311
351.000000	40.182782
350.000000	40.197142
