PE UV       SUBTECH     SPECTRUM    ASCII       PEDS        4.00        
   -1
180618-8trans.Sample.asc
18/06/18
20:23:17.00
18/06/18
20:23:17.00
Analyst
MOXSIO2 test
400.000000
1
Lambda 950
950L1201053
PerkinElmer UV WinLab 6.0.4.0738 / 1.61.00 Lambda 900

0
0
3350/5 889.8/2
0
0
VIS
1
1
1
CommonBeamDepol,RBeamAtt,SBeamAtt,universal reflectance
0
0
0
0
Program
 
0
3350/0.48 889.8/0.12
0
0
0
 
 
 
0
 
889.8
150
889.8
Front
28
on
S:100 R:100
 
0
0
0
 
0
 
 
 
0
 
 
0
0
45.0
4.00
4.00
False
True
202L1112213
 
0
0


0
0
#HDR
-1
-1
#GR
nm
%T
1.0
0.0
700.000000
-2.000000
151
8
95.241542
90.328703
#DATA
700.000000	93.760438
698.000000	93.842892
696.000000	93.938880
694.000000	94.026719
692.000000	93.817261
690.000000	94.020783
688.000000	94.077011
686.000000	94.081393
684.000000	94.074180
682.000000	94.218915
680.000000	94.350366
678.000000	94.304223
676.000000	94.376554
674.000000	94.364866
672.000000	94.478855
670.000000	94.490222
668.000000	94.575768
666.000000	94.455152
664.000000	94.605084
662.000000	94.671391
660.000000	94.539177
658.000000	94.657389
656.000000	94.625126
654.000000	94.710946
652.000000	94.840288
650.000000	94.786730
648.000000	94.757042
646.000000	94.810771
644.000000	94.823814
642.000000	94.731144
640.000000	94.902309
638.000000	94.828016
636.000000	94.773122
634.000000	94.643782
632.000000	94.796654
630.000000	94.826379
628.000000	94.817441
626.000000	94.877835
624.000000	94.902424
622.000000	94.735787
620.000000	94.863530
618.000000	94.893757
616.000000	94.664748
614.000000	94.782839
612.000000	94.894427
610.000000	94.721597
608.000000	94.874086
606.000000	94.716122
604.000000	94.755813
602.000000	94.780692
600.000000	94.821437
598.000000	94.790397
596.000000	94.828803
594.000000	94.788114
592.000000	94.727361
590.000000	94.790636
588.000000	94.740837
586.000000	94.772282
584.000000	94.764554
582.000000	94.735999
580.000000	94.712643
578.000000	94.755226
576.000000	94.776666
574.000000	94.726813
572.000000	94.737808
570.000000	94.707929
568.000000	94.662675
566.000000	94.750186
564.000000	94.793291
562.000000	94.684503
560.000000	94.766077
558.000000	94.750412
556.000000	94.700449
554.000000	94.761310
552.000000	94.783073
550.000000	94.731107
548.000000	94.800753
546.000000	94.672829
544.000000	94.752812
542.000000	94.811284
540.000000	94.753232
538.000000	94.718170
536.000000	94.736072
534.000000	94.755024
532.000000	94.917901
530.000000	94.837160
528.000000	94.860737
526.000000	94.890828
524.000000	94.941385
522.000000	94.915225
520.000000	94.886253
518.000000	94.921113
516.000000	94.937878
514.000000	94.944291
512.000000	94.940890
510.000000	94.939393
508.000000	95.011312
506.000000	95.001674
504.000000	94.992485
502.000000	94.991044
500.000000	95.151178
498.000000	95.041160
496.000000	95.241542
494.000000	95.009528
492.000000	94.955123
490.000000	94.968026
488.000000	95.092292
486.000000	95.226074
484.000000	95.070223
482.000000	95.094313
480.000000	95.066445
478.000000	95.057960
476.000000	95.059275
474.000000	95.043769
472.000000	95.070436
470.000000	95.107844
468.000000	95.112823
466.000000	94.975430
464.000000	94.972464
462.000000	94.955083
460.000000	95.000075
458.000000	94.965293
456.000000	95.048884
454.000000	95.190597
452.000000	94.866128
450.000000	94.959116
448.000000	94.948309
446.000000	94.845518
444.000000	94.896608
442.000000	94.856060
440.000000	94.741377
438.000000	94.827886
436.000000	94.697481
434.000000	94.479282
432.000000	94.583319
430.000000	94.504513
428.000000	94.400453
426.000000	94.392360
424.000000	94.351368
422.000000	94.153762
420.000000	94.021729
418.000000	93.837869
416.000000	93.602436
414.000000	93.494164
412.000000	93.167034
410.000000	92.746703
408.000000	92.455917
406.000000	92.084783
404.000000	91.542078
402.000000	90.949358
400.000000	90.328703
