PE UV       SUBTECH     SPECTRUM    ASCII       PEDS        4.00        
   -1
180621-8T.Sample.asc
18/06/21
19:27:36.00
18/06/21
19:27:36.00
Analyst
MOXSIO2 test
400.000000
1
Lambda 950
950L1201053
PerkinElmer UV WinLab 6.0.4.0738 / 1.61.00 Lambda 900

0
0
3350/5 889.8/2
0
0
VIS
1
1
1
CommonBeamDepol,RBeamAtt,SBeamAtt,universal reflectance
0
0
0
0
Program
 
0
3350/0.48 889.8/0.24
0
0
0
 
 
 
0
 
889.8
150
889.8
Front
28
on
S:100 R:100
 
0
0
0
 
0
 
 
 
0
 
 
0
0
45.0
4.00
4.00
False
True
202L1112213
 
0
19


0
0
#HDR
-1
-1
#GR
nm
%T
1.0
0.0
700.000000
-2.000000
151
8
95.765422
92.640226
#DATA
700.000000	94.364309
698.000000	94.367794
696.000000	94.432188
694.000000	94.528023
692.000000	94.580614
690.000000	94.631417
688.000000	94.769785
686.000000	94.748883
684.000000	94.772036
682.000000	94.865652
680.000000	94.847739
678.000000	94.919907
676.000000	95.016003
674.000000	95.052288
672.000000	95.098871
670.000000	95.215904
668.000000	95.201070
666.000000	95.291328
664.000000	95.208357
662.000000	95.430286
660.000000	95.420459
658.000000	95.387620
656.000000	95.446629
654.000000	95.449552
652.000000	95.512405
650.000000	95.520097
648.000000	95.554183
646.000000	95.596854
644.000000	95.511352
642.000000	95.610857
640.000000	95.731681
638.000000	95.640956
636.000000	95.715737
634.000000	95.718518
632.000000	95.728856
630.000000	95.765422
628.000000	95.751314
626.000000	95.759424
624.000000	95.702210
622.000000	95.730806
620.000000	95.747402
618.000000	95.731729
616.000000	95.729365
614.000000	95.721893
612.000000	95.733822
610.000000	95.753987
608.000000	95.718966
606.000000	95.679997
604.000000	95.682197
602.000000	95.672088
600.000000	95.720685
598.000000	95.680252
596.000000	95.685553
594.000000	95.742604
592.000000	95.693225
590.000000	95.674967
588.000000	95.706968
586.000000	95.754925
584.000000	95.600610
582.000000	95.626540
580.000000	95.644303
578.000000	95.654408
576.000000	95.590705
574.000000	95.581774
572.000000	95.564167
570.000000	95.662046
568.000000	95.515123
566.000000	95.553088
564.000000	95.572547
562.000000	95.574304
560.000000	95.548270
558.000000	95.480509
556.000000	95.471169
554.000000	95.507642
552.000000	95.488100
550.000000	95.508764
548.000000	95.386237
546.000000	95.437928
544.000000	95.467821
542.000000	95.455400
540.000000	95.414132
538.000000	95.410097
536.000000	95.434462
534.000000	95.487433
532.000000	95.405037
530.000000	95.441689
528.000000	95.411474
526.000000	95.424758
524.000000	95.457982
522.000000	95.418213
520.000000	95.434227
518.000000	95.454352
516.000000	95.434445
514.000000	95.460985
512.000000	95.442981
510.000000	95.416521
508.000000	95.449400
506.000000	95.448519
504.000000	95.391016
502.000000	95.513412
500.000000	95.493550
498.000000	95.505363
496.000000	95.578596
494.000000	95.493465
492.000000	95.564413
490.000000	95.468420
488.000000	95.446001
486.000000	95.556695
484.000000	95.574267
482.000000	95.470328
480.000000	95.532234
478.000000	95.541977
476.000000	95.546600
474.000000	95.550400
472.000000	95.535387
470.000000	95.491224
468.000000	95.557499
466.000000	95.491458
464.000000	95.537372
462.000000	95.518026
460.000000	95.519484
458.000000	95.524429
456.000000	95.463034
454.000000	95.437130
452.000000	95.491965
450.000000	95.436879
448.000000	95.467049
446.000000	95.446691
444.000000	95.410946
442.000000	95.500444
440.000000	95.412870
438.000000	95.384653
436.000000	95.301984
434.000000	95.347346
432.000000	95.183585
430.000000	95.283187
428.000000	95.256315
426.000000	95.232169
424.000000	95.138477
422.000000	95.065438
420.000000	94.992519
418.000000	94.910299
416.000000	94.660958
414.000000	94.529186
412.000000	94.443302
410.000000	94.244380
408.000000	94.055923
406.000000	93.768872
404.000000	93.556121
402.000000	93.044105
400.000000	92.640226
