PE UV       SUBTECH     SPECTRUM    ASCII       PEDS        4.00        
   -1
180620-3 T.Sample.asc
18/06/20
18:06:20.00
18/06/20
18:06:20.00
Analyst
MOXSIO2 test
400.000000
1
Lambda 950
950L1201053
PerkinElmer UV WinLab 6.0.4.0738 / 1.61.00 Lambda 900

0
0
3350/5 889.8/2
0
0
VIS
1
1
1
CommonBeamDepol,RBeamAtt,SBeamAtt,universal reflectance
0
0
0
0
Program
 
0
3350/0.48 889.8/0.12
0
0
0
 
 
 
0
 
889.8
150
889.8
Front
28
on
S:100 R:100
 
0
0
0
 
0
 
 
 
0
 
 
0
0
45.0
4.00
4.00
False
True
202L1112213
 
0
19


0
0
#HDR
-1
-1
#GR
nm
%T
1.0
0.0
700.000000
-2.000000
151
8
95.880024
93.277654
#DATA
700.000000	93.904340
698.000000	94.003109
696.000000	94.131181
694.000000	94.255621
692.000000	94.291972
690.000000	94.196676
688.000000	94.387008
686.000000	94.515790
684.000000	94.582097
682.000000	94.579985
680.000000	94.716827
678.000000	94.688442
676.000000	94.819885
674.000000	94.807544
672.000000	94.888056
670.000000	94.977051
668.000000	94.919620
666.000000	94.978207
664.000000	95.117971
662.000000	95.125701
660.000000	95.125518
658.000000	95.157133
656.000000	95.340821
654.000000	95.290584
652.000000	95.229221
650.000000	95.302060
648.000000	95.399070
646.000000	95.504865
644.000000	95.550370
642.000000	95.568204
640.000000	95.572006
638.000000	95.624417
636.000000	95.545440
634.000000	95.574309
632.000000	95.554819
630.000000	95.614677
628.000000	95.535582
626.000000	95.621446
624.000000	95.707609
622.000000	95.762748
620.000000	95.723332
618.000000	95.772722
616.000000	95.737637
614.000000	95.803330
612.000000	95.880024
610.000000	95.799233
608.000000	95.847747
606.000000	95.712489
604.000000	95.737193
602.000000	95.746675
600.000000	95.738398
598.000000	95.712406
596.000000	95.738625
594.000000	95.713568
592.000000	95.729652
590.000000	95.690105
588.000000	95.757101
586.000000	95.703263
584.000000	95.670355
582.000000	95.714501
580.000000	95.739860
578.000000	95.641339
576.000000	95.638627
574.000000	95.655956
572.000000	95.747064
570.000000	95.663075
568.000000	95.625867
566.000000	95.618318
564.000000	95.692523
562.000000	95.554289
560.000000	95.518966
558.000000	95.605624
556.000000	95.576097
554.000000	95.597144
552.000000	95.638111
550.000000	95.525387
548.000000	95.587084
546.000000	95.566071
544.000000	95.472218
542.000000	95.497697
540.000000	95.528919
538.000000	95.454861
536.000000	95.601599
534.000000	95.486757
532.000000	95.570215
530.000000	95.498787
528.000000	95.520019
526.000000	95.525666
524.000000	95.463535
522.000000	95.436393
520.000000	95.482061
518.000000	95.517856
516.000000	95.476513
514.000000	95.524558
512.000000	95.510558
510.000000	95.484822
508.000000	95.490573
506.000000	95.530354
504.000000	95.514951
502.000000	95.456185
500.000000	95.376006
498.000000	95.535068
496.000000	95.758470
494.000000	95.593352
492.000000	95.549689
490.000000	95.378399
488.000000	95.601914
486.000000	95.610073
484.000000	95.555026
482.000000	95.392785
480.000000	95.463437
478.000000	95.415704
476.000000	95.446138
474.000000	95.516757
472.000000	95.538682
470.000000	95.513830
468.000000	95.464140
466.000000	95.424551
464.000000	95.450516
462.000000	95.449470
460.000000	95.492953
458.000000	95.455143
456.000000	95.500303
454.000000	95.534453
452.000000	95.441842
450.000000	95.574324
448.000000	95.380712
446.000000	95.368449
444.000000	95.330913
442.000000	95.402267
440.000000	95.298473
438.000000	95.348164
436.000000	95.426460
434.000000	95.224321
432.000000	95.341991
430.000000	95.210328
428.000000	95.109698
426.000000	95.152225
424.000000	95.145318
422.000000	95.075001
420.000000	94.995357
418.000000	95.022423
416.000000	94.938736
414.000000	94.826724
412.000000	94.748076
410.000000	94.546349
408.000000	94.385578
406.000000	94.142423
404.000000	93.912602
402.000000	93.710064
400.000000	93.277654
