PE UV       SUBTECH     SPECTRUM    ASCII       PEDS        4.00        
   -1
180620-4T.Sample.asc
18/06/20
20:31:21.00
18/06/20
20:31:21.00
Analyst
MOXSIO2 test
400.000000
1
Lambda 950
950L1201053
PerkinElmer UV WinLab 6.0.4.0738 / 1.61.00 Lambda 900

0
0
3350/5 889.8/2
0
0
VIS
1
1
1
CommonBeamDepol,RBeamAtt,SBeamAtt,universal reflectance
0
0
0
0
Program
 
0
3350/0.48 889.8/0.12
0
0
0
 
 
 
0
 
889.8
150
889.8
Front
28
on
S:100 R:100
 
0
0
0
 
0
 
 
 
0
 
 
0
0
45.0
4.00
4.00
False
True
202L1112213
 
0
19


0
0
#HDR
-1
-1
#GR
nm
%T
1.0
0.0
700.000000
-2.000000
151
8
95.848416
94.068780
#DATA
700.000000	95.587300
698.000000	95.550729
696.000000	95.529769
694.000000	95.668159
692.000000	95.534690
690.000000	95.623429
688.000000	95.495062
686.000000	95.535039
684.000000	95.486029
682.000000	95.553739
680.000000	95.583755
678.000000	95.600085
676.000000	95.673661
674.000000	95.603451
672.000000	95.575182
670.000000	95.654229
668.000000	95.619944
666.000000	95.546548
664.000000	95.612504
662.000000	95.492692
660.000000	95.617715
658.000000	95.617856
656.000000	95.566396
654.000000	95.594244
652.000000	95.546770
650.000000	95.545639
648.000000	95.499292
646.000000	95.539697
644.000000	95.466561
642.000000	95.475325
640.000000	95.467329
638.000000	95.562958
636.000000	95.410081
634.000000	95.595982
632.000000	95.401600
630.000000	95.491120
628.000000	95.528730
626.000000	95.474473
624.000000	95.536000
622.000000	95.575252
620.000000	95.431761
618.000000	95.411762
616.000000	95.386600
614.000000	95.478092
612.000000	95.465808
610.000000	95.430881
608.000000	95.343369
606.000000	95.411671
604.000000	95.377976
602.000000	95.425079
600.000000	95.332497
598.000000	95.434977
596.000000	95.454146
594.000000	95.455330
592.000000	95.438131
590.000000	95.506769
588.000000	95.455963
586.000000	95.396043
584.000000	95.466231
582.000000	95.458070
580.000000	95.336556
578.000000	95.503391
576.000000	95.488374
574.000000	95.601551
572.000000	95.398603
570.000000	95.479746
568.000000	95.445499
566.000000	95.428071
564.000000	95.490116
562.000000	95.579891
560.000000	95.644220
558.000000	95.539179
556.000000	95.583718
554.000000	95.596109
552.000000	95.495458
550.000000	95.636922
548.000000	95.673428
546.000000	95.744019
544.000000	95.681236
542.000000	95.753777
540.000000	95.699616
538.000000	95.758041
536.000000	95.776866
534.000000	95.685235
532.000000	95.674135
530.000000	95.668123
528.000000	95.733437
526.000000	95.774852
524.000000	95.791638
522.000000	95.751748
520.000000	95.813165
518.000000	95.843237
516.000000	95.808236
514.000000	95.748192
512.000000	95.680297
510.000000	95.744324
508.000000	95.710120
506.000000	95.685515
504.000000	95.689409
502.000000	95.591145
500.000000	95.514914
498.000000	95.717996
496.000000	95.848416
494.000000	95.620118
492.000000	95.477119
490.000000	95.559323
488.000000	95.671341
486.000000	95.640855
484.000000	95.455407
482.000000	95.497563
480.000000	95.397739
478.000000	95.367867
476.000000	95.526891
474.000000	95.335502
472.000000	95.313351
470.000000	95.193708
468.000000	95.281818
466.000000	95.153886
464.000000	95.078496
462.000000	95.116529
460.000000	95.057139
458.000000	95.042287
456.000000	95.001554
454.000000	94.900737
452.000000	94.906143
450.000000	94.772309
448.000000	94.713619
446.000000	94.843430
444.000000	94.763463
442.000000	94.686122
440.000000	94.809596
438.000000	94.789807
436.000000	94.771316
434.000000	94.842386
432.000000	94.783361
430.000000	94.858144
428.000000	94.919405
426.000000	94.910954
424.000000	94.973781
422.000000	94.966502
420.000000	94.918029
418.000000	94.925588
416.000000	94.999065
414.000000	94.958925
412.000000	94.928926
410.000000	94.864962
408.000000	94.821670
406.000000	94.748509
404.000000	94.673262
402.000000	94.486789
400.000000	94.068780
