PE UV       SUBTECH     SPECTRUM    ASCII       PEDS        4.00        
   -1
180621-1 z T.Sample.asc
18/06/21
11:01:50.00
18/06/21
11:01:50.00
Analyst
MOXIO2test
400.000000
1
Lambda 950
950L1201053
PerkinElmer UV WinLab 6.0.4.0738 / 1.61.00 Lambda 900

0
0
3350/5 889.8/2
0
0
VIS
1
1
1
CommonBeamDepol,RBeamAtt,SBeamAtt,universal reflectance
0
0
0
0
Program
 
0
3350/0.48 889.8/0.12
0
0
0
 
 
 
0
 
889.8
150
889.8
Front
28
on
S:100 R:100
 
0
0
0
 
0
 
 
 
0
 
 
0
0
45.0
4.00
4.00
False
True
202L1112213
 
0
19


0
0
#HDR
-1
-1
#GR
nm
%T
1.0
0.0
700.000000
-2.000000
151
8
95.932953
93.183466
#DATA
700.000000	94.045340
698.000000	94.272098
696.000000	94.331651
694.000000	94.378780
692.000000	94.531336
690.000000	94.565626
688.000000	94.625284
686.000000	94.639334
684.000000	94.695103
682.000000	94.827631
680.000000	94.874631
678.000000	94.871646
676.000000	94.938623
674.000000	95.063857
672.000000	95.066671
670.000000	95.076500
668.000000	95.085319
666.000000	95.144529
664.000000	95.312184
662.000000	95.217100
660.000000	95.351408
658.000000	95.372217
656.000000	95.342082
654.000000	95.382556
652.000000	95.386567
650.000000	95.497255
648.000000	95.458466
646.000000	95.451775
644.000000	95.600051
642.000000	95.635391
640.000000	95.625353
638.000000	95.601998
636.000000	95.643541
634.000000	95.602919
632.000000	95.724446
630.000000	95.751284
628.000000	95.671326
626.000000	95.763721
624.000000	95.596369
622.000000	95.803258
620.000000	95.802605
618.000000	95.853653
616.000000	95.786233
614.000000	95.673557
612.000000	95.932953
610.000000	95.731698
608.000000	95.784578
606.000000	95.761958
604.000000	95.679546
602.000000	95.597005
600.000000	95.794016
598.000000	95.802520
596.000000	95.697855
594.000000	95.645197
592.000000	95.658804
590.000000	95.780331
588.000000	95.765272
586.000000	95.683236
584.000000	95.729624
582.000000	95.682959
580.000000	95.703357
578.000000	95.621597
576.000000	95.697453
574.000000	95.748066
572.000000	95.626010
570.000000	95.723940
568.000000	95.670685
566.000000	95.572197
564.000000	95.551289
562.000000	95.581204
560.000000	95.615484
558.000000	95.621082
556.000000	95.590608
554.000000	95.572431
552.000000	95.550349
550.000000	95.547388
548.000000	95.573897
546.000000	95.568543
544.000000	95.545276
542.000000	95.495310
540.000000	95.507098
538.000000	95.549752
536.000000	95.539735
534.000000	95.529380
532.000000	95.539640
530.000000	95.571181
528.000000	95.540811
526.000000	95.595266
524.000000	95.507892
522.000000	95.501623
520.000000	95.569555
518.000000	95.500243
516.000000	95.531394
514.000000	95.545309
512.000000	95.518092
510.000000	95.562636
508.000000	95.571983
506.000000	95.526543
504.000000	95.551239
502.000000	95.565162
500.000000	95.474000
498.000000	95.582946
496.000000	95.730928
494.000000	95.562773
492.000000	95.416130
490.000000	95.549468
488.000000	95.603612
486.000000	95.644468
484.000000	95.474294
482.000000	95.509613
480.000000	95.601976
478.000000	95.604262
476.000000	95.514157
474.000000	95.575087
472.000000	95.590763
470.000000	95.538417
468.000000	95.446208
466.000000	95.545363
464.000000	95.536413
462.000000	95.492848
460.000000	95.536287
458.000000	95.518585
456.000000	95.442112
454.000000	95.846359
452.000000	95.492432
450.000000	95.368910
448.000000	95.416570
446.000000	95.482142
444.000000	95.522449
442.000000	95.335805
440.000000	95.307603
438.000000	95.358518
436.000000	95.400932
434.000000	95.369469
432.000000	95.327677
430.000000	95.175196
428.000000	95.276502
426.000000	95.156509
424.000000	95.233055
422.000000	95.195906
420.000000	95.165500
418.000000	94.991525
416.000000	95.020259
414.000000	94.899927
412.000000	94.742453
410.000000	94.490826
408.000000	94.363900
406.000000	94.185634
404.000000	94.101240
402.000000	93.639994
400.000000	93.183466
